image_2,image_1,rt,correct,type,VerbalScored,high_low_verbal,worker_id,trial_no_ptcp
bag,flag,1335.8,1,ortho,2.25,low_verbal,05Wo9IGy,25
bag,flag,1508.9,1,ortho,1.75,low_verbal,0CxunTLR,53
bag,flag,1952.3,0,ortho,2.42,low_verbal,0EwA9ugv,46
bag,flag,1509.8,1,ortho,2.58,low_verbal,0X9nY8Ym,42
bag,flag,1202,1,ortho,2.833333333,low_verbal,1hM1LUCj,39
bag,flag,1259.5,1,ortho,4.166667,high_verbal,26Z3U4Qu,45
bag,flag,4751.7,0,ortho,3.083333333,low_verbal,2dXRa5Zq,28
bag,flag,2180.2,1,ortho,4.67,high_verbal,2Ie4vXKm,53
bag,flag,1732.5,1,ortho,1.83,low_verbal,3DHBLnqj,46
bag,flag,2350.5,1,ortho,4.92,high_verbal,3HwZ3aSO,11
bag,flag,2305.5,1,ortho,4.83,high_verbal,4ELANfYv,4
bag,flag,1754,1,ortho,4.833333333,high_verbal,4FubSY7J,9
bag,flag,2013.5,1,ortho,3.083333333,low_verbal,4KFmznfv,50
bag,flag,1805.1,1,ortho,1.33,low_verbal,5WF1GwNy,4
bag,flag,1238.9,1,ortho,4.5,high_verbal,79p4hVcb,19
bag,flag,1096.4,1,ortho,4.666666667,high_verbal,7eDZS0g9,32
bag,flag,2300.9,0,ortho,2.92,low_verbal,7rrmnKSW,47
bag,flag,3095.7,1,ortho,2.17,low_verbal,7rvMjiCW,33
bag,flag,1401.7,1,ortho,2.833333333,low_verbal,8Mnv01S8,7
bag,flag,3518.3,1,ortho,2.75,low_verbal,8yyEgSuX,30
bag,flag,1091.9,1,ortho,5,high_verbal,AvRdAeDp,30
bag,flag,1075.6,1,ortho,2.25,low_verbal,AZihdj82,2
bag,flag,2875.5,1,ortho,4.75,high_verbal,BfCux7Qy,29
bag,flag,1895.9,1,ortho,4.67,high_verbal,bj3SfFHq,9
bag,flag,1855.3,1,ortho,4.166667,high_verbal,c8Txd3Z5,7
bag,flag,1648,1,ortho,1,low_verbal,CPt18YMj,22
bag,flag,1551.5,1,ortho,2.916666667,low_verbal,Ds5BnIYz,35
bag,flag,1647.5,1,ortho,4.75,high_verbal,DuDDHkI9,21
bag,flag,1345.9,1,ortho,4.333333,high_verbal,duTSHxzu,15
bag,flag,2220.9,1,ortho,3.25,low_verbal,e3BB2RMg,2
bag,flag,1705,1,ortho,3.17,low_verbal,Ezm1v61p,35
bag,flag,1885,1,ortho,3,low_verbal,fbKqS6qy,4
bag,flag,1440.7,1,ortho,1.42,low_verbal,fX6rWWkd,22
bag,flag,1463.2,1,ortho,2.58,low_verbal,GJMX4RUC,35
bag,flag,2466,1,ortho,3,low_verbal,gmTxt8dp,31
bag,flag,1188.3,1,ortho,4.67,high_verbal,gY67hxD2,28
bag,flag,2272.9,1,ortho,2.42,low_verbal,HPiIXyO1,24
bag,flag,1669.7,1,ortho,2.833333333,low_verbal,hRiDYGB2,27
bag,flag,1183.3,1,ortho,4.58,high_verbal,hsk1bUWA,14
bag,flag,1927,1,ortho,4.75,high_verbal,IbadRTNw,20
bag,flag,1894.6,0,ortho,4.92,high_verbal,IGrNgFbi,37
bag,flag,2043.9,1,ortho,4.583333333,high_verbal,IMlP20yi,4
bag,flag,1665.6,1,ortho,1.92,low_verbal,JeMnPabT,1
bag,flag,1925,1,ortho,5,high_verbal,Ki4GHif7,39
bag,flag,1173.4,1,ortho,4.5,high_verbal,KPfJRNRo,13
bag,flag,1644.5,1,ortho,2.58,low_verbal,lAeE5wTL,12
bag,flag,2527.4,1,ortho,4.67,high_verbal,lcQfoynH,10
bag,flag,1450.2,1,ortho,4.666667,high_verbal,LpHjkqKd,20
bag,flag,1578.8,1,ortho,1.08,low_verbal,LyXqRZhM,31
bag,flag,1480,1,ortho,5,high_verbal,m6nAacjH,15
bag,flag,1691,0,ortho,2.666666667,low_verbal,mqvAJ91n,24
bag,flag,1396.4,1,ortho,1.75,low_verbal,mZqk099M,21
bag,flag,2016,1,ortho,4.666667,high_verbal,NCar5SZo,53
bag,flag,1849.5,1,ortho,4.75,high_verbal,NRFUWLZO,48
bag,flag,1638.9,1,ortho,3.083333333,low_verbal,NS1YHcvi,26
bag,flag,2078.3,1,ortho,1.92,low_verbal,Ny0Ml3uz,11
bag,flag,1184.2,1,ortho,2.5,low_verbal,OE580Gi8,10
bag,flag,1597.6,1,ortho,4.67,high_verbal,OHHIBcMJ,15
bag,flag,1291,1,ortho,2.916666667,low_verbal,OwZfp5qv,14
bag,flag,1399,1,ortho,2.916666667,low_verbal,ozMU0TCL,50
bag,flag,1818.8,1,ortho,4.916666667,high_verbal,Po8DLpvd,1
bag,flag,1931.4,0,ortho,4.333333,high_verbal,Ps3HVmAH,43
bag,flag,1383.6,0,ortho,1.5,low_verbal,pylKRwzb,45
bag,flag,1477.6,1,ortho,5,high_verbal,qFEgGDhX,50
bag,flag,1399.1,1,ortho,3,low_verbal,qkCSFiGm,15
bag,flag,1519.3,1,ortho,4.166667,high_verbal,qPOXJpNv,2
bag,flag,1766.3,1,ortho,4.416667,high_verbal,Qy5J1Mxs,23
bag,flag,2323,1,ortho,2.58,low_verbal,rdIExOr9,19
bag,flag,783.1,1,ortho,4.166667,high_verbal,RHqN8QGm,23
bag,flag,1806.4,1,ortho,4.67,high_verbal,RlmJUu78,5
bag,flag,1654,1,ortho,4.25,high_verbal,sZLRQDIR,2
bag,flag,3492.8,1,ortho,2.33,low_verbal,TFWelN7f,51
bag,flag,1216.9,1,ortho,4.25,high_verbal,ts7nbQkN,53
bag,flag,3621,1,ortho,4.583333333,high_verbal,U8Rxi9rz,12
bag,flag,1453.3,1,ortho,1.67,low_verbal,UhCBWnbb,33
bag,flag,1294.3,1,ortho,2.17,low_verbal,vhsbIoXa,47
bag,flag,1422,1,ortho,2.83,low_verbal,VxHNyXXR,47
bag,flag,751,1,ortho,2.67,low_verbal,wDmKNbjb,7
bag,flag,1037,1,ortho,4.666666667,high_verbal,WewWn58j,20
bag,flag,1702.1,1,ortho,3,low_verbal,xa4C6HC1,26
bag,flag,1784.4,1,ortho,1.75,low_verbal,Xa9ISMwC,53
bag,flag,1407.4,1,ortho,2.58,low_verbal,xMXJBD7Y,46
bag,flag,1072,1,ortho,4.833333333,high_verbal,xnNpmgQR,25
bag,flag,1190.8,1,ortho,4.75,high_verbal,XTcCmXvP,12
bag,flag,1497,1,ortho,4.75,high_verbal,XWkUpOyp,28
bag,flag,2735.4,1,ortho,4.83,high_verbal,XxuTNyUr,5
bag,flag,3300,1,ortho,4.666666667,high_verbal,y1Ud0IvQ,10
bag,flag,1006.2,1,ortho,4.583333333,high_verbal,ycrZF9Ui,51
bag,flag,1712.8,1,ortho,4.833333333,high_verbal,yduNAfJN,28
bag,flag,1541.4,1,ortho,4.92,high_verbal,yI870PhA,30
bag,flag,1779.5,1,ortho,4.92,high_verbal,zfMwhrdi,45
bag,flag,1564.5,1,ortho,2.17,low_verbal,zzU1ectZ,28
beer,deer,1429.4,1,ortho,2.25,low_verbal,05Wo9IGy,18
beer,claw,2893.5,1,NR,2.25,low_verbal,05Wo9IGy,39
beer,deer,1734.6,1,ortho,1.75,low_verbal,0CxunTLR,6
beer,claw,2089.7,1,NR,1.75,low_verbal,0CxunTLR,12
beer,deer,1056.8,0,ortho,2.42,low_verbal,0EwA9ugv,26
beer,claw,909.5,1,NR,2.42,low_verbal,0EwA9ugv,33
beer,deer,2612.1,0,ortho,2.58,low_verbal,0X9nY8Ym,22
beer,claw,1429,1,NR,2.58,low_verbal,0X9nY8Ym,40
beer,deer,4892,1,ortho,2.833333333,low_verbal,1hM1LUCj,18
beer,claw,3313,1,NR,2.833333333,low_verbal,1hM1LUCj,47
beer,claw,1927.3,1,NR,4.166667,high_verbal,26Z3U4Qu,26
beer,deer,1515.7,1,ortho,4.166667,high_verbal,26Z3U4Qu,30
beer,claw,2170.7,1,NR,3.083333333,low_verbal,2dXRa5Zq,12
beer,deer,2828.9,1,ortho,3.083333333,low_verbal,2dXRa5Zq,50
beer,deer,1156.8,1,ortho,4.67,high_verbal,2Ie4vXKm,8
beer,claw,1797.6,1,NR,4.67,high_verbal,2Ie4vXKm,11
beer,deer,2137.7,1,ortho,1.83,low_verbal,3DHBLnqj,14
beer,claw,2218.6,0,NR,1.83,low_verbal,3DHBLnqj,45
beer,claw,2039.7,1,NR,4.92,high_verbal,3HwZ3aSO,7
beer,deer,2134.7,0,ortho,4.92,high_verbal,3HwZ3aSO,19
beer,deer,1752.3,1,ortho,4.83,high_verbal,4ELANfYv,9
beer,claw,2056.2,1,NR,4.83,high_verbal,4ELANfYv,34
beer,deer,2150.4,1,ortho,4.833333333,high_verbal,4FubSY7J,25
beer,claw,2542,1,NR,4.833333333,high_verbal,4FubSY7J,26
beer,claw,3955.3,1,NR,3.083333333,low_verbal,4KFmznfv,21
beer,deer,3544.2,1,ortho,3.083333333,low_verbal,4KFmznfv,49
beer,deer,1812,1,ortho,1.33,low_verbal,5WF1GwNy,15
beer,claw,2150.9,1,NR,1.33,low_verbal,5WF1GwNy,41
beer,deer,1234.3,1,ortho,4.5,high_verbal,79p4hVcb,11
beer,claw,1588.8,1,NR,4.5,high_verbal,79p4hVcb,39
beer,deer,1144.3,1,ortho,4.666666667,high_verbal,7eDZS0g9,18
beer,claw,1132.7,1,NR,4.666666667,high_verbal,7eDZS0g9,53
beer,claw,1641,1,NR,2.92,low_verbal,7rrmnKSW,30
beer,deer,2296.3,1,ortho,2.92,low_verbal,7rrmnKSW,43
beer,claw,3316.1,1,NR,2.17,low_verbal,7rvMjiCW,51
beer,deer,1453.6,1,ortho,2.17,low_verbal,7rvMjiCW,52
beer,claw,2980.4,1,NR,2.833333333,low_verbal,8Mnv01S8,31
beer,deer,1471.9,1,ortho,2.833333333,low_verbal,8Mnv01S8,47
beer,deer,1651.7,1,ortho,2.75,low_verbal,8yyEgSuX,9
beer,claw,1423.2,1,NR,2.75,low_verbal,8yyEgSuX,53
beer,deer,1550.4,0,ortho,5,high_verbal,AvRdAeDp,22
beer,claw,1700,1,NR,5,high_verbal,AvRdAeDp,36
beer,deer,1203.1,1,ortho,2.25,low_verbal,AZihdj82,50
beer,claw,1025.8,1,NR,2.25,low_verbal,AZihdj82,52
beer,deer,1630.099998,1,ortho,4.75,high_verbal,BfCux7Qy,13
beer,claw,2707.5,1,NR,4.75,high_verbal,BfCux7Qy,31
beer,claw,1829,1,NR,4.67,high_verbal,bj3SfFHq,41
beer,deer,3088.9,0,ortho,4.67,high_verbal,bj3SfFHq,53
beer,deer,2095.8,1,ortho,4.166667,high_verbal,c8Txd3Z5,35
beer,claw,1565.9,1,NR,4.166667,high_verbal,c8Txd3Z5,51
beer,deer,1411,1,ortho,1,low_verbal,CPt18YMj,27
beer,claw,1370,1,NR,1,low_verbal,CPt18YMj,52
beer,deer,1282.9,1,ortho,2.916666667,low_verbal,Ds5BnIYz,39
beer,claw,1198.9,1,NR,2.916666667,low_verbal,Ds5BnIYz,51
beer,claw,2608.6,1,NR,4.75,high_verbal,DuDDHkI9,28
beer,deer,1867,1,ortho,4.75,high_verbal,DuDDHkI9,39
beer,claw,2486.1,1,NR,4.333333,high_verbal,duTSHxzu,14
beer,deer,1454.3,1,ortho,4.333333,high_verbal,duTSHxzu,45
beer,deer,1998.2,1,ortho,3.25,low_verbal,e3BB2RMg,19
beer,claw,2225,1,NR,3.25,low_verbal,e3BB2RMg,31
beer,claw,1095,1,NR,3.17,low_verbal,Ezm1v61p,8
beer,deer,1843,1,ortho,3.17,low_verbal,Ezm1v61p,40
beer,deer,1206,1,ortho,3,low_verbal,fbKqS6qy,22
beer,claw,1109,1,NR,3,low_verbal,fbKqS6qy,53
beer,claw,2192.4,1,NR,1.42,low_verbal,fX6rWWkd,1
beer,deer,1262.1,1,ortho,1.42,low_verbal,fX6rWWkd,43
beer,deer,3174.9,1,ortho,2.58,low_verbal,GJMX4RUC,17
beer,claw,1378.9,1,NR,2.58,low_verbal,GJMX4RUC,34
beer,claw,3453,1,NR,3,low_verbal,gmTxt8dp,11
beer,deer,1846,1,ortho,3,low_verbal,gmTxt8dp,25
beer,deer,2630.4,1,ortho,4.67,high_verbal,gY67hxD2,10
beer,claw,1509,1,NR,4.67,high_verbal,gY67hxD2,51
beer,claw,4347.2,1,NR,2.42,low_verbal,HPiIXyO1,12
beer,deer,3414.9,1,ortho,2.42,low_verbal,HPiIXyO1,31
beer,deer,1998,1,ortho,2.833333333,low_verbal,hRiDYGB2,22
beer,claw,2596,1,NR,2.833333333,low_verbal,hRiDYGB2,39
beer,claw,4814.5,1,NR,4.58,high_verbal,hsk1bUWA,2
beer,deer,1163.7,1,ortho,4.58,high_verbal,hsk1bUWA,23
beer,deer,1484.8,1,ortho,4.75,high_verbal,IbadRTNw,39
beer,claw,4850.4,1,NR,4.75,high_verbal,IbadRTNw,40
beer,deer,1761.6,0,ortho,4.92,high_verbal,IGrNgFbi,24
beer,claw,1799,1,NR,4.92,high_verbal,IGrNgFbi,48
beer,deer,3323.5,0,ortho,4.583333333,high_verbal,IMlP20yi,10
beer,claw,1529.3,1,NR,4.583333333,high_verbal,IMlP20yi,30
beer,deer,2328.5,1,ortho,1.92,low_verbal,JeMnPabT,3
beer,claw,1468.5,1,NR,1.92,low_verbal,JeMnPabT,33
beer,deer,1872,1,ortho,5,high_verbal,Ki4GHif7,19
beer,claw,1243,1,NR,5,high_verbal,Ki4GHif7,43
beer,claw,2847.4,1,NR,4.5,high_verbal,KPfJRNRo,1
beer,deer,2767,0,ortho,4.5,high_verbal,KPfJRNRo,5
beer,claw,3460.3,1,NR,2.58,low_verbal,lAeE5wTL,20
beer,deer,3428.2,0,ortho,2.58,low_verbal,lAeE5wTL,41
beer,claw,2298.9,1,NR,4.67,high_verbal,lcQfoynH,3
beer,deer,1813.4,1,ortho,4.67,high_verbal,lcQfoynH,14
beer,deer,2285.3,0,ortho,4.666667,high_verbal,LpHjkqKd,46
beer,claw,2440.1,1,NR,4.666667,high_verbal,LpHjkqKd,48
beer,deer,2727.5,0,ortho,1.08,low_verbal,LyXqRZhM,23
beer,claw,1720,1,NR,1.08,low_verbal,LyXqRZhM,27
beer,deer,2566,0,ortho,5,high_verbal,m6nAacjH,14
beer,claw,2410,1,NR,5,high_verbal,m6nAacjH,23
beer,deer,1578.8,1,ortho,4.75,high_verbal,mHkNNA58,25
beer,claw,1799.4,1,NR,4.75,high_verbal,mHkNNA58,45
beer,claw,1620,1,NR,2.666666667,low_verbal,mqvAJ91n,12
beer,deer,2958,0,ortho,2.666666667,low_verbal,mqvAJ91n,41
beer,claw,1901.8,1,NR,1.75,low_verbal,mZqk099M,36
beer,deer,1764.3,1,ortho,1.75,low_verbal,mZqk099M,41
beer,claw,2601,1,NR,4.666667,high_verbal,NCar5SZo,5
beer,deer,2006,1,ortho,4.666667,high_verbal,NCar5SZo,37
beer,claw,2426.8,1,NR,4.75,high_verbal,NRFUWLZO,21
beer,deer,1412.9,1,ortho,4.75,high_verbal,NRFUWLZO,49
beer,deer,4139.8,0,ortho,3.083333333,low_verbal,NS1YHcvi,4
beer,claw,3146.1,1,NR,3.083333333,low_verbal,NS1YHcvi,34
beer,deer,1198.9,1,ortho,1.92,low_verbal,Ny0Ml3uz,21
beer,claw,1939.5,1,NR,1.92,low_verbal,Ny0Ml3uz,47
beer,claw,1840.4,1,NR,2.5,low_verbal,OE580Gi8,7
beer,deer,1357.6,1,ortho,2.5,low_verbal,OE580Gi8,15
beer,deer,1542.9,1,ortho,4.67,high_verbal,OHHIBcMJ,31
beer,claw,1425.6,1,NR,4.67,high_verbal,OHHIBcMJ,52
beer,claw,2199,1,NR,2.916666667,low_verbal,OwZfp5qv,6
beer,deer,2569,1,ortho,2.916666667,low_verbal,OwZfp5qv,18
beer,claw,1814,1,NR,2.916666667,low_verbal,ozMU0TCL,36
beer,deer,2671,1,ortho,2.916666667,low_verbal,ozMU0TCL,38
beer,deer,1830.6,1,ortho,4.916666667,high_verbal,Po8DLpvd,20
beer,claw,2060.1,1,NR,4.916666667,high_verbal,Po8DLpvd,44
beer,deer,1677,0,ortho,4.333333,high_verbal,Ps3HVmAH,33
beer,claw,1197.5,1,NR,4.333333,high_verbal,Ps3HVmAH,52
beer,deer,1993.4,0,ortho,1.5,low_verbal,pylKRwzb,47
beer,claw,636,1,NR,1.5,low_verbal,pylKRwzb,48
beer,deer,1828,1,ortho,5,high_verbal,qFEgGDhX,12
beer,claw,1120,1,NR,5,high_verbal,qFEgGDhX,19
beer,claw,2306.4,1,NR,3,low_verbal,qkCSFiGm,5
beer,deer,3620.9,0,ortho,3,low_verbal,qkCSFiGm,20
beer,deer,2993.2,1,ortho,4.166667,high_verbal,qPOXJpNv,21
beer,claw,1729.9,1,NR,4.166667,high_verbal,qPOXJpNv,25
beer,deer,1310.6,1,ortho,4.416667,high_verbal,Qy5J1Mxs,36
beer,claw,1351.8,1,NR,4.416667,high_verbal,Qy5J1Mxs,43
beer,deer,2474,0,ortho,2.58,low_verbal,rdIExOr9,28
beer,claw,2070,1,NR,2.58,low_verbal,rdIExOr9,41
beer,deer,1748.8,1,ortho,4.166667,high_verbal,RHqN8QGm,16
beer,claw,1235.2,1,NR,4.166667,high_verbal,RHqN8QGm,41
beer,claw,1872.7,1,NR,4.67,high_verbal,RlmJUu78,25
beer,deer,1353.4,1,ortho,4.67,high_verbal,RlmJUu78,27
beer,deer,1429.7,1,ortho,4.25,high_verbal,sZLRQDIR,13
beer,claw,1085.1,1,NR,4.25,high_verbal,sZLRQDIR,27
beer,deer,2432.2,1,ortho,2.33,low_verbal,TFWelN7f,45
beer,claw,1935.7,1,NR,2.33,low_verbal,TFWelN7f,48
beer,claw,2315.8,1,NR,4.25,high_verbal,ts7nbQkN,9
beer,deer,3502.4,0,ortho,4.25,high_verbal,ts7nbQkN,19
beer,claw,1383.7,1,NR,4.583333333,high_verbal,U8Rxi9rz,16
beer,deer,1815.6,0,ortho,4.583333333,high_verbal,U8Rxi9rz,37
beer,deer,2058.5,1,ortho,1.67,low_verbal,UhCBWnbb,4
beer,claw,1834,1,NR,1.67,low_verbal,UhCBWnbb,5
beer,claw,2917.2,1,NR,2.17,low_verbal,vhsbIoXa,16
beer,deer,2116.4,1,ortho,2.17,low_verbal,vhsbIoXa,18
beer,deer,3060,1,ortho,2.83,low_verbal,VxHNyXXR,15
beer,claw,1679,1,NR,2.83,low_verbal,VxHNyXXR,34
beer,deer,2596.1,1,ortho,2.67,low_verbal,wDmKNbjb,33
beer,claw,1821.5,1,NR,2.67,low_verbal,wDmKNbjb,44
beer,deer,1066.1,1,ortho,4.666666667,high_verbal,WewWn58j,45
beer,claw,1520.1,1,NR,4.666666667,high_verbal,WewWn58j,51
beer,claw,2443.7,1,NR,3,low_verbal,xa4C6HC1,5
beer,deer,2565.8,1,ortho,3,low_verbal,xa4C6HC1,38
beer,deer,2007.4,1,ortho,1.75,low_verbal,Xa9ISMwC,1
beer,claw,1825.7,1,NR,1.75,low_verbal,Xa9ISMwC,45
beer,claw,4578.1,1,NR,2.58,low_verbal,xMXJBD7Y,13
beer,deer,1418.4,1,ortho,2.58,low_verbal,xMXJBD7Y,34
beer,deer,2506,1,ortho,4.833333333,high_verbal,xnNpmgQR,42
beer,claw,2053,1,NR,4.833333333,high_verbal,xnNpmgQR,48
beer,deer,1339.8,1,ortho,4.75,high_verbal,XTcCmXvP,1
beer,claw,1205.7,1,NR,4.75,high_verbal,XTcCmXvP,46
beer,claw,3498.9,1,NR,4.75,high_verbal,XWkUpOyp,36
beer,deer,2092.9,0,ortho,4.75,high_verbal,XWkUpOyp,47
beer,claw,1957.5,1,NR,4.83,high_verbal,XxuTNyUr,24
beer,deer,3790.7,1,ortho,4.83,high_verbal,XxuTNyUr,41
beer,deer,2134,1,ortho,4.666666667,high_verbal,y1Ud0IvQ,17
beer,claw,2401,0,NR,4.666666667,high_verbal,y1Ud0IvQ,29
beer,claw,1305.9,1,NR,4.583333333,high_verbal,ycrZF9Ui,45
beer,deer,1044,0,ortho,4.583333333,high_verbal,ycrZF9Ui,52
beer,claw,2186.1,1,NR,4.833333333,high_verbal,yduNAfJN,34
beer,deer,1714.6,1,ortho,4.833333333,high_verbal,yduNAfJN,38
beer,claw,3765.4,1,NR,4.92,high_verbal,yI870PhA,1
beer,deer,3608.6,1,ortho,4.92,high_verbal,yI870PhA,26
beer,claw,1229.9,1,NR,4.92,high_verbal,zfMwhrdi,1
beer,deer,2564.5,1,ortho,4.92,high_verbal,zfMwhrdi,29
beer,claw,2811.7,1,NR,2.17,low_verbal,zzU1ectZ,15
beer,deer,1458.9,1,ortho,2.17,low_verbal,zzU1ectZ,42
bell,nose,2265.1,1,NR,2.25,low_verbal,05Wo9IGy,21
bell,well,1267.8,1,ortho,2.25,low_verbal,05Wo9IGy,37
bell,nose,1696.5,1,NR,1.75,low_verbal,0CxunTLR,23
bell,well,1722.6,1,ortho,1.75,low_verbal,0CxunTLR,49
bell,well,2555.3,1,ortho,2.42,low_verbal,0EwA9ugv,13
bell,nose,763.3,0,NR,2.42,low_verbal,0EwA9ugv,52
bell,well,1603.6,1,ortho,2.58,low_verbal,0X9nY8Ym,3
bell,nose,1114,1,NR,2.58,low_verbal,0X9nY8Ym,37
bell,well,2194,1,ortho,2.833333333,low_verbal,1hM1LUCj,3
bell,nose,2685,1,NR,2.833333333,low_verbal,1hM1LUCj,32
bell,nose,1711.4,1,NR,4.166667,high_verbal,26Z3U4Qu,4
bell,well,2546.1,1,ortho,4.166667,high_verbal,26Z3U4Qu,41
bell,nose,2448.9,1,NR,3.083333333,low_verbal,2dXRa5Zq,20
bell,well,3049.6,1,ortho,3.083333333,low_verbal,2dXRa5Zq,27
bell,nose,1792.1,1,NR,4.67,high_verbal,2Ie4vXKm,39
bell,well,2733.5,1,ortho,4.67,high_verbal,2Ie4vXKm,47
bell,well,2415.5,1,ortho,1.83,low_verbal,3DHBLnqj,37
bell,nose,2459.8,1,NR,1.83,low_verbal,3DHBLnqj,44
bell,nose,1618.7,1,NR,4.92,high_verbal,3HwZ3aSO,21
bell,well,2249.6,1,ortho,4.92,high_verbal,3HwZ3aSO,24
bell,nose,1973.3,1,NR,4.83,high_verbal,4ELANfYv,20
bell,well,1607.4,1,ortho,4.83,high_verbal,4ELANfYv,40
bell,well,3563.8,1,ortho,4.833333333,high_verbal,4FubSY7J,29
bell,nose,4181.2,1,NR,4.833333333,high_verbal,4FubSY7J,52
bell,nose,1120.7,1,NR,3.083333333,low_verbal,4KFmznfv,36
bell,well,2582.3,1,ortho,3.083333333,low_verbal,4KFmznfv,47
bell,nose,2245.1,1,NR,1.33,low_verbal,5WF1GwNy,12
bell,well,2430,1,ortho,1.33,low_verbal,5WF1GwNy,23
bell,well,2910.1,1,ortho,4.5,high_verbal,79p4hVcb,13
bell,nose,1369.9,1,NR,4.5,high_verbal,79p4hVcb,27
bell,well,1095.7,1,ortho,4.666666667,high_verbal,7eDZS0g9,9
bell,nose,1138.2,1,NR,4.666666667,high_verbal,7eDZS0g9,20
bell,well,1746.7,1,ortho,2.92,low_verbal,7rrmnKSW,13
bell,nose,1310.5,1,NR,2.92,low_verbal,7rrmnKSW,15
bell,well,1604.3,1,ortho,2.17,low_verbal,7rvMjiCW,21
bell,nose,1362.3,1,NR,2.17,low_verbal,7rvMjiCW,46
bell,nose,3040.8,1,NR,2.833333333,low_verbal,8Mnv01S8,13
bell,well,1476.6,1,ortho,2.833333333,low_verbal,8Mnv01S8,32
bell,nose,4337.8,1,NR,2.75,low_verbal,8yyEgSuX,32
bell,well,1105.8,0,ortho,2.75,low_verbal,8yyEgSuX,36
bell,nose,1439.4,1,NR,5,high_verbal,AvRdAeDp,10
bell,well,1213.1,1,ortho,5,high_verbal,AvRdAeDp,49
bell,well,1497.9,1,ortho,2.25,low_verbal,AZihdj82,27
bell,nose,1143.9,1,NR,2.25,low_verbal,AZihdj82,49
bell,nose,2564.400002,1,NR,4.75,high_verbal,BfCux7Qy,32
bell,well,1542.3,1,ortho,4.67,high_verbal,bj3SfFHq,39
bell,nose,1513.9,1,NR,4.67,high_verbal,bj3SfFHq,49
bell,well,1908,1,ortho,4.166667,high_verbal,c8Txd3Z5,23
bell,nose,1448.2,1,NR,4.166667,high_verbal,c8Txd3Z5,28
bell,well,1371,1,ortho,1,low_verbal,CPt18YMj,25
bell,nose,1553,1,NR,1,low_verbal,CPt18YMj,32
bell,nose,1436.3,1,NR,2.916666667,low_verbal,Ds5BnIYz,29
bell,well,948.2,0,ortho,2.916666667,low_verbal,Ds5BnIYz,49
bell,nose,2052.6,1,NR,4.75,high_verbal,DuDDHkI9,9
bell,well,2983.4,1,ortho,4.75,high_verbal,DuDDHkI9,22
bell,well,4414.6,0,ortho,4.333333,high_verbal,duTSHxzu,28
bell,nose,1728.9,1,NR,4.333333,high_verbal,duTSHxzu,48
bell,nose,1650.9,1,NR,3.25,low_verbal,e3BB2RMg,29
bell,well,1186.4,1,ortho,3.25,low_verbal,e3BB2RMg,34
bell,nose,1709,1,NR,3.17,low_verbal,Ezm1v61p,14
bell,well,1285,1,ortho,3.17,low_verbal,Ezm1v61p,51
bell,well,1514,1,ortho,3,low_verbal,fbKqS6qy,8
bell,nose,1209,1,NR,3,low_verbal,fbKqS6qy,21
bell,nose,1497,1,NR,1.42,low_verbal,fX6rWWkd,3
bell,well,1581.9,1,ortho,1.42,low_verbal,fX6rWWkd,36
bell,nose,1069.6,1,NR,2.58,low_verbal,GJMX4RUC,4
bell,well,1062.3,1,ortho,2.58,low_verbal,GJMX4RUC,47
bell,well,1767,1,ortho,3,low_verbal,gmTxt8dp,18
bell,nose,1648,1,NR,3,low_verbal,gmTxt8dp,29
bell,well,2248.9,1,ortho,4.67,high_verbal,gY67hxD2,23
bell,nose,1299.4,1,NR,4.67,high_verbal,gY67hxD2,39
bell,nose,2164.4,1,NR,2.42,low_verbal,HPiIXyO1,18
bell,well,2287.3,1,ortho,2.42,low_verbal,HPiIXyO1,35
bell,well,1600.5,1,ortho,2.833333333,low_verbal,hRiDYGB2,21
bell,nose,918.5,0,NR,2.833333333,low_verbal,hRiDYGB2,44
bell,well,1597.3,1,ortho,4.58,high_verbal,hsk1bUWA,8
bell,nose,1198.6,0,NR,4.58,high_verbal,hsk1bUWA,27
bell,nose,1540.9,1,NR,4.75,high_verbal,IbadRTNw,4
bell,well,1779.6,1,ortho,4.75,high_verbal,IbadRTNw,24
bell,well,1954.6,1,ortho,4.92,high_verbal,IGrNgFbi,8
bell,nose,1828.6,1,NR,4.92,high_verbal,IGrNgFbi,46
bell,nose,1844.1,1,NR,4.583333333,high_verbal,IMlP20yi,14
bell,well,1474.7,0,ortho,4.583333333,high_verbal,IMlP20yi,38
bell,well,1105.9,1,ortho,1.92,low_verbal,JeMnPabT,25
bell,nose,1106.4,1,NR,1.92,low_verbal,JeMnPabT,39
bell,well,1432,1,ortho,5,high_verbal,Ki4GHif7,7
bell,nose,1042,1,NR,5,high_verbal,Ki4GHif7,20
bell,well,3439.5,1,ortho,4.5,high_verbal,KPfJRNRo,24
bell,nose,1303.7,1,NR,4.5,high_verbal,KPfJRNRo,37
bell,nose,1768.1,1,NR,2.58,low_verbal,lAeE5wTL,7
bell,well,1753.7,1,ortho,2.58,low_verbal,lAeE5wTL,38
bell,well,2009.5,1,ortho,4.67,high_verbal,lcQfoynH,13
bell,nose,2170.1,1,NR,4.67,high_verbal,lcQfoynH,37
bell,nose,1394.6,1,NR,4.666667,high_verbal,LpHjkqKd,22
bell,well,1379.2,1,ortho,4.666667,high_verbal,LpHjkqKd,36
bell,well,2504.1,1,ortho,1.08,low_verbal,LyXqRZhM,26
bell,nose,1478,1,NR,1.08,low_verbal,LyXqRZhM,51
bell,well,1633,1,ortho,5,high_verbal,m6nAacjH,31
bell,nose,1238,1,NR,5,high_verbal,m6nAacjH,43
bell,well,1929.2,1,ortho,4.75,high_verbal,mHkNNA58,15
bell,nose,1231.3,1,NR,4.75,high_verbal,mHkNNA58,49
bell,nose,2087,1,NR,2.666666667,low_verbal,mqvAJ91n,25
bell,well,2762,1,ortho,2.666666667,low_verbal,mqvAJ91n,43
bell,nose,1890,1,NR,1.75,low_verbal,mZqk099M,5
bell,well,1573.8,1,ortho,1.75,low_verbal,mZqk099M,44
bell,well,2198,1,ortho,4.666667,high_verbal,NCar5SZo,11
bell,nose,1545,1,NR,4.666667,high_verbal,NCar5SZo,47
bell,nose,2195.4,1,NR,4.75,high_verbal,NRFUWLZO,10
bell,well,2467.5,1,ortho,4.75,high_verbal,NRFUWLZO,20
bell,well,1872.9,1,ortho,3.083333333,low_verbal,NS1YHcvi,2
bell,nose,1602.3,1,NR,3.083333333,low_verbal,NS1YHcvi,6
bell,well,1757.4,1,ortho,1.92,low_verbal,Ny0Ml3uz,18
bell,nose,1333,1,NR,2.5,low_verbal,OE580Gi8,23
bell,well,1512.3,0,ortho,2.5,low_verbal,OE580Gi8,43
bell,well,1436.4,1,ortho,4.67,high_verbal,OHHIBcMJ,16
bell,nose,1503.4,1,NR,4.67,high_verbal,OHHIBcMJ,40
bell,nose,1410,1,NR,2.916666667,low_verbal,OwZfp5qv,1
bell,well,2292,1,ortho,2.916666667,low_verbal,OwZfp5qv,24
bell,nose,1385,1,NR,2.916666667,low_verbal,ozMU0TCL,9
bell,well,2297,0,ortho,2.916666667,low_verbal,ozMU0TCL,13
bell,nose,1889.2,1,NR,4.916666667,high_verbal,Po8DLpvd,7
bell,well,1815.3,1,ortho,4.916666667,high_verbal,Po8DLpvd,9
bell,nose,1884.7,1,NR,4.333333,high_verbal,Ps3HVmAH,26
bell,well,2166.9,0,ortho,4.333333,high_verbal,Ps3HVmAH,39
bell,well,1718.3,1,ortho,1.5,low_verbal,pylKRwzb,30
bell,nose,2114.3,1,NR,1.5,low_verbal,pylKRwzb,49
bell,well,2571.7,1,ortho,5,high_verbal,qFEgGDhX,15
bell,nose,1585.4,1,NR,5,high_verbal,qFEgGDhX,23
bell,well,1414.4,1,ortho,3,low_verbal,qkCSFiGm,35
bell,nose,1312.6,1,NR,3,low_verbal,qkCSFiGm,49
bell,nose,1147.5,1,NR,4.166667,high_verbal,qPOXJpNv,44
bell,well,1517.8,1,ortho,4.166667,high_verbal,qPOXJpNv,45
bell,nose,1376,1,NR,4.416667,high_verbal,Qy5J1Mxs,31
bell,well,1164.2,0,ortho,4.416667,high_verbal,Qy5J1Mxs,53
bell,well,1900,1,ortho,2.58,low_verbal,rdIExOr9,43
bell,nose,1506,1,NR,2.58,low_verbal,rdIExOr9,49
bell,well,1182.6,1,ortho,4.166667,high_verbal,RHqN8QGm,4
bell,nose,1023.3,1,NR,4.166667,high_verbal,RHqN8QGm,49
bell,nose,1265,1,NR,4.67,high_verbal,RlmJUu78,42
bell,well,1592.7,1,ortho,4.67,high_verbal,RlmJUu78,49
bell,nose,1685.1,1,NR,4.25,high_verbal,sZLRQDIR,15
bell,nose,3485,1,NR,2.33,low_verbal,TFWelN7f,39
bell,well,2541.5,0,ortho,2.33,low_verbal,TFWelN7f,53
bell,nose,1733.2,1,NR,4.25,high_verbal,ts7nbQkN,7
bell,well,1407.8,1,ortho,4.25,high_verbal,ts7nbQkN,15
bell,well,1686.1,1,ortho,4.583333333,high_verbal,U8Rxi9rz,1
bell,nose,1219.8,1,NR,4.583333333,high_verbal,U8Rxi9rz,51
bell,nose,1968.5,1,NR,1.67,low_verbal,UhCBWnbb,40
bell,well,2246.5,0,ortho,1.67,low_verbal,UhCBWnbb,48
bell,well,1486.4,1,ortho,2.17,low_verbal,vhsbIoXa,36
bell,nose,1191.4,1,NR,2.17,low_verbal,vhsbIoXa,51
bell,well,2046,1,ortho,2.83,low_verbal,VxHNyXXR,12
bell,nose,1487,1,NR,2.83,low_verbal,VxHNyXXR,37
bell,well,1019.4,1,ortho,2.67,low_verbal,wDmKNbjb,3
bell,nose,974.2000003,0,NR,2.67,low_verbal,wDmKNbjb,23
bell,nose,1155.7,1,NR,4.666666667,high_verbal,WewWn58j,23
bell,well,1214.3,1,ortho,4.666666667,high_verbal,WewWn58j,44
bell,well,2792.4,1,ortho,3,low_verbal,xa4C6HC1,13
bell,nose,2003.6,1,NR,3,low_verbal,xa4C6HC1,21
bell,well,2216.2,1,ortho,1.75,low_verbal,Xa9ISMwC,8
bell,nose,1613.5,1,NR,1.75,low_verbal,Xa9ISMwC,32
bell,nose,2646.3,1,NR,2.58,low_verbal,xMXJBD7Y,8
bell,well,1939.3,1,ortho,2.58,low_verbal,xMXJBD7Y,12
bell,nose,1745,1,NR,4.833333333,high_verbal,xnNpmgQR,16
bell,well,1724,1,ortho,4.833333333,high_verbal,xnNpmgQR,17
bell,nose,1174.2,1,NR,4.75,high_verbal,XTcCmXvP,6
bell,well,2166.900001,1,ortho,4.75,high_verbal,XTcCmXvP,45
bell,well,2392.2,1,ortho,4.75,high_verbal,XWkUpOyp,1
bell,nose,1981.2,1,NR,4.75,high_verbal,XWkUpOyp,4
bell,nose,1518.8,1,NR,4.83,high_verbal,XxuTNyUr,7
bell,well,2603.4,1,ortho,4.83,high_verbal,XxuTNyUr,8
bell,well,1620,1,ortho,4.666666667,high_verbal,y1Ud0IvQ,16
bell,nose,1236,1,NR,4.666666667,high_verbal,y1Ud0IvQ,47
bell,well,1422.8,1,ortho,4.583333333,high_verbal,ycrZF9Ui,22
bell,nose,1112.8,1,NR,4.583333333,high_verbal,ycrZF9Ui,29
bell,nose,1017.9,1,NR,4.833333333,high_verbal,yduNAfJN,45
bell,well,1649.9,1,ortho,4.833333333,high_verbal,yduNAfJN,46
bell,nose,1809.9,1,NR,4.92,high_verbal,yI870PhA,3
bell,well,2347.5,1,ortho,4.92,high_verbal,yI870PhA,35
bell,well,2171.3,1,ortho,4.92,high_verbal,zfMwhrdi,46
bell,nose,1723.9,1,NR,4.92,high_verbal,zfMwhrdi,51
bell,well,1610.2,1,ortho,2.17,low_verbal,zzU1ectZ,2
bell,nose,1299.4,1,NR,2.17,low_verbal,zzU1ectZ,17
brain,chain,2742.6,1,ortho,2.25,low_verbal,05Wo9IGy,36
brain,chain,1636.1,1,ortho,1.75,low_verbal,0CxunTLR,47
brain,chain,1410.9,0,ortho,2.42,low_verbal,0EwA9ugv,20
brain,chain,1580.3,1,ortho,2.58,low_verbal,0X9nY8Ym,28
brain,chain,2309,1,ortho,2.833333333,low_verbal,1hM1LUCj,36
brain,chain,1326.6,1,ortho,4.166667,high_verbal,26Z3U4Qu,46
brain,chain,2458,1,ortho,3.083333333,low_verbal,2dXRa5Zq,18
brain,chain,3772.2,1,ortho,4.67,high_verbal,2Ie4vXKm,24
brain,chain,4738.3,1,ortho,1.83,low_verbal,3DHBLnqj,9
brain,chain,1624.3,1,ortho,4.92,high_verbal,3HwZ3aSO,9
brain,chain,1780.9,1,ortho,4.83,high_verbal,4ELANfYv,15
brain,chain,1748.3,1,ortho,4.833333333,high_verbal,4FubSY7J,43
brain,chain,1591.7,1,ortho,3.083333333,low_verbal,4KFmznfv,12
brain,chain,1610.8,1,ortho,1.33,low_verbal,5WF1GwNy,52
brain,chain,1360.4,1,ortho,4.5,high_verbal,79p4hVcb,7
brain,chain,1443.4,1,ortho,4.666666667,high_verbal,7eDZS0g9,33
brain,chain,1757.8,1,ortho,2.92,low_verbal,7rrmnKSW,52
brain,chain,1322.5,1,ortho,2.17,low_verbal,7rvMjiCW,26
brain,chain,2097.5,1,ortho,2.833333333,low_verbal,8Mnv01S8,14
brain,chain,2157.2,0,ortho,2.75,low_verbal,8yyEgSuX,44
brain,chain,1108.2,1,ortho,5,high_verbal,AvRdAeDp,31
brain,chain,2815.9,1,ortho,2.25,low_verbal,AZihdj82,33
brain,chain,1247.6,1,ortho,4.75,high_verbal,BfCux7Qy,19
brain,chain,1409.5,1,ortho,4.67,high_verbal,bj3SfFHq,20
brain,chain,2834.1,1,ortho,4.166667,high_verbal,c8Txd3Z5,50
brain,chain,1327,1,ortho,1,low_verbal,CPt18YMj,19
brain,chain,1535.4,0,ortho,2.916666667,low_verbal,Ds5BnIYz,38
brain,chain,1890.8,1,ortho,4.75,high_verbal,DuDDHkI9,46
brain,chain,2816,0,ortho,4.333333,high_verbal,duTSHxzu,40
brain,chain,1606.2,0,ortho,3.25,low_verbal,e3BB2RMg,43
brain,chain,2664,1,ortho,3.17,low_verbal,Ezm1v61p,43
brain,chain,1337,1,ortho,3,low_verbal,fbKqS6qy,15
brain,chain,1370.1,1,ortho,1.42,low_verbal,fX6rWWkd,46
brain,chain,1016.3,1,ortho,2.58,low_verbal,GJMX4RUC,30
brain,chain,1918,1,ortho,3,low_verbal,gmTxt8dp,24
brain,chain,1843.1,1,ortho,4.67,high_verbal,gY67hxD2,45
brain,chain,2106.2,1,ortho,2.42,low_verbal,HPiIXyO1,37
brain,chain,1177.4,1,ortho,2.833333333,low_verbal,hRiDYGB2,14
brain,chain,1265.9,1,ortho,4.58,high_verbal,hsk1bUWA,12
brain,chain,1564.3,1,ortho,4.75,high_verbal,IbadRTNw,13
brain,chain,1528.4,1,ortho,4.92,high_verbal,IGrNgFbi,33
brain,chain,1073.8,1,ortho,4.583333333,high_verbal,IMlP20yi,9
brain,chain,3071.6,1,ortho,1.92,low_verbal,JeMnPabT,9
brain,chain,2820,1,ortho,5,high_verbal,Ki4GHif7,28
brain,chain,1127.7,1,ortho,4.5,high_verbal,KPfJRNRo,53
brain,chain,1651.6,1,ortho,2.58,low_verbal,lAeE5wTL,27
brain,chain,1931.2,0,ortho,4.67,high_verbal,lcQfoynH,22
brain,chain,2032.1,1,ortho,4.666667,high_verbal,LpHjkqKd,16
brain,chain,1750.2,1,ortho,1.08,low_verbal,LyXqRZhM,41
brain,chain,1419,1,ortho,5,high_verbal,m6nAacjH,11
brain,chain,1338.1,1,ortho,4.75,high_verbal,mHkNNA58,39
brain,chain,3640,0,ortho,2.666666667,low_verbal,mqvAJ91n,47
brain,chain,1141.3,1,ortho,1.75,low_verbal,mZqk099M,53
brain,chain,1779,1,ortho,4.666667,high_verbal,NCar5SZo,14
brain,chain,3894,1,ortho,4.75,high_verbal,NRFUWLZO,12
brain,chain,1138.8,1,ortho,3.083333333,low_verbal,NS1YHcvi,14
brain,chain,1558.6,1,ortho,1.92,low_verbal,Ny0Ml3uz,35
brain,chain,1314.7,1,ortho,2.5,low_verbal,OE580Gi8,22
brain,chain,1237.7,1,ortho,4.67,high_verbal,OHHIBcMJ,10
brain,chain,1604,1,ortho,2.916666667,low_verbal,OwZfp5qv,53
brain,chain,1690,1,ortho,2.916666667,low_verbal,ozMU0TCL,41
brain,chain,1267.5,1,ortho,4.916666667,high_verbal,Po8DLpvd,25
brain,chain,1344.7,0,ortho,4.333333,high_verbal,Ps3HVmAH,40
brain,chain,1455.8,0,ortho,1.5,low_verbal,pylKRwzb,6
brain,chain,1049.7,1,ortho,5,high_verbal,qFEgGDhX,36
brain,chain,1185.8,1,ortho,3,low_verbal,qkCSFiGm,29
brain,chain,1090,1,ortho,4.166667,high_verbal,qPOXJpNv,19
brain,chain,1539,1,ortho,4.416667,high_verbal,Qy5J1Mxs,19
brain,chain,1329,1,ortho,2.58,low_verbal,rdIExOr9,11
brain,chain,1493.6,1,ortho,4.166667,high_verbal,RHqN8QGm,19
brain,chain,1519.9,1,ortho,4.67,high_verbal,RlmJUu78,45
brain,chain,1272.6,1,ortho,4.25,high_verbal,sZLRQDIR,40
brain,chain,1861.4,1,ortho,2.33,low_verbal,TFWelN7f,40
brain,chain,1400,1,ortho,4.25,high_verbal,ts7nbQkN,35
brain,chain,1542.1,1,ortho,1.67,low_verbal,UhCBWnbb,27
brain,chain,888.2,1,ortho,2.17,low_verbal,vhsbIoXa,52
brain,chain,1360,1,ortho,2.83,low_verbal,VxHNyXXR,36
brain,chain,996.5,1,ortho,2.67,low_verbal,wDmKNbjb,14
brain,chain,1161.5,1,ortho,4.666666667,high_verbal,WewWn58j,47
brain,chain,1699.2,1,ortho,3,low_verbal,xa4C6HC1,47
brain,chain,2507.4,1,ortho,1.75,low_verbal,Xa9ISMwC,41
brain,chain,1370.4,1,ortho,2.58,low_verbal,xMXJBD7Y,36
brain,chain,4116,1,ortho,4.833333333,high_verbal,xnNpmgQR,47
brain,chain,1178.200001,1,ortho,4.75,high_verbal,XTcCmXvP,11
brain,chain,1287,1,ortho,4.75,high_verbal,XWkUpOyp,8
brain,chain,1364.1,1,ortho,4.83,high_verbal,XxuTNyUr,6
brain,chain,2026,1,ortho,4.666666667,high_verbal,y1Ud0IvQ,14
brain,chain,830.8,1,ortho,4.583333333,high_verbal,ycrZF9Ui,4
brain,chain,1034.7,1,ortho,4.833333333,high_verbal,yduNAfJN,36
brain,chain,1629.6,1,ortho,4.92,high_verbal,yI870PhA,38
brain,chain,1423.1,1,ortho,4.92,high_verbal,zfMwhrdi,52
brain,chain,1267.3,1,ortho,2.17,low_verbal,zzU1ectZ,35
bread,bed,1932,1,non-ortho,2.25,low_verbal,05Wo9IGy,42
bread,bed,1538.1,1,non-ortho,1.75,low_verbal,0CxunTLR,39
bread,bed,1198.2,0,non-ortho,2.42,low_verbal,0EwA9ugv,21
bread,bed,1552.1,0,non-ortho,2.58,low_verbal,0X9nY8Ym,52
bread,bed,4955,0,non-ortho,2.833333333,low_verbal,1hM1LUCj,10
bread,bed,1785.3,1,non-ortho,4.166667,high_verbal,26Z3U4Qu,47
bread,bed,2883.9,0,non-ortho,3.083333333,low_verbal,2dXRa5Zq,47
bread,bed,2972.2,1,non-ortho,4.67,high_verbal,2Ie4vXKm,21
bread,bed,1742.7,1,non-ortho,1.83,low_verbal,3DHBLnqj,51
bread,bed,2793.1,0,non-ortho,4.92,high_verbal,3HwZ3aSO,5
bread,bed,2555.9,1,non-ortho,4.83,high_verbal,4ELANfYv,44
bread,bed,1226.9,1,non-ortho,4.833333333,high_verbal,4FubSY7J,13
bread,bed,2854.5,1,non-ortho,3.083333333,low_verbal,4KFmznfv,22
bread,bed,1421.6,1,non-ortho,1.33,low_verbal,5WF1GwNy,42
bread,bed,1860.1,1,non-ortho,4.5,high_verbal,79p4hVcb,51
bread,bed,1940.5,0,non-ortho,4.666666667,high_verbal,7eDZS0g9,25
bread,bed,1805.2,1,non-ortho,2.92,low_verbal,7rrmnKSW,51
bread,bed,1317.5,1,non-ortho,2.17,low_verbal,7rvMjiCW,13
bread,bed,1408.5,1,non-ortho,2.833333333,low_verbal,8Mnv01S8,29
bread,bed,2690.5,1,non-ortho,2.75,low_verbal,8yyEgSuX,46
bread,bed,3086.4,1,non-ortho,5,high_verbal,AvRdAeDp,38
bread,bed,1307.4,1,non-ortho,2.25,low_verbal,AZihdj82,31
bread,bed,1584.5,1,non-ortho,4.75,high_verbal,BfCux7Qy,50
bread,bed,2136.6,1,non-ortho,4.67,high_verbal,bj3SfFHq,32
bread,bed,2121.6,0,non-ortho,4.166667,high_verbal,c8Txd3Z5,17
bread,bed,1794,1,non-ortho,1,low_verbal,CPt18YMj,38
bread,bed,1341.8,1,non-ortho,2.916666667,low_verbal,Ds5BnIYz,5
bread,bed,3205.1,1,non-ortho,4.333333,high_verbal,duTSHxzu,27
bread,bed,1804.2,1,non-ortho,3.25,low_verbal,e3BB2RMg,36
bread,bed,1242,1,non-ortho,3.17,low_verbal,Ezm1v61p,34
bread,bed,1549,1,non-ortho,3,low_verbal,fbKqS6qy,46
bread,bed,2015.3,1,non-ortho,1.42,low_verbal,fX6rWWkd,42
bread,bed,1549.7,1,non-ortho,2.58,low_verbal,GJMX4RUC,21
bread,bed,2134,1,non-ortho,3,low_verbal,gmTxt8dp,13
bread,bed,1295.8,1,non-ortho,4.67,high_verbal,gY67hxD2,36
bread,bed,2482.7,1,non-ortho,2.42,low_verbal,HPiIXyO1,1
bread,bed,3346.5,1,non-ortho,2.833333333,low_verbal,hRiDYGB2,41
bread,bed,1212.7,1,non-ortho,4.58,high_verbal,hsk1bUWA,45
bread,bed,1338.1,1,non-ortho,4.75,high_verbal,IbadRTNw,42
bread,bed,1671.9,1,non-ortho,4.92,high_verbal,IGrNgFbi,44
bread,bed,1421.8,1,non-ortho,4.583333333,high_verbal,IMlP20yi,7
bread,bed,1540.2,1,non-ortho,1.92,low_verbal,JeMnPabT,4
bread,bed,1748,0,non-ortho,5,high_verbal,Ki4GHif7,25
bread,bed,1037,1,non-ortho,4.5,high_verbal,KPfJRNRo,25
bread,bed,1298.5,1,non-ortho,2.58,low_verbal,lAeE5wTL,43
bread,bed,1874.6,1,non-ortho,4.67,high_verbal,lcQfoynH,44
bread,bed,1206.1,1,non-ortho,4.666667,high_verbal,LpHjkqKd,9
bread,bed,1504.3,1,non-ortho,1.08,low_verbal,LyXqRZhM,47
bread,bed,1837,1,non-ortho,5,high_verbal,m6nAacjH,46
bread,bed,2026.4,1,non-ortho,4.75,high_verbal,mHkNNA58,23
bread,bed,2540,1,non-ortho,2.666666667,low_verbal,mqvAJ91n,34
bread,bed,1782.1,1,non-ortho,1.75,low_verbal,mZqk099M,14
bread,bed,2243,1,non-ortho,4.666667,high_verbal,NCar5SZo,42
bread,bed,2278.3,1,non-ortho,4.75,high_verbal,NRFUWLZO,46
bread,bed,2713.7,0,non-ortho,3.083333333,low_verbal,NS1YHcvi,49
bread,bed,2259.7,0,non-ortho,1.92,low_verbal,Ny0Ml3uz,41
bread,bed,1666.1,1,non-ortho,2.5,low_verbal,OE580Gi8,1
bread,bed,1573.9,0,non-ortho,4.67,high_verbal,OHHIBcMJ,39
bread,bed,2011,1,non-ortho,2.916666667,low_verbal,OwZfp5qv,23
bread,bed,2240,1,non-ortho,2.916666667,low_verbal,ozMU0TCL,7
bread,bed,1274.8,1,non-ortho,4.916666667,high_verbal,Po8DLpvd,6
bread,bed,1517.8,0,non-ortho,4.333333,high_verbal,Ps3HVmAH,46
bread,bed,1982,0,non-ortho,1.5,low_verbal,pylKRwzb,51
bread,bed,1698.4,1,non-ortho,5,high_verbal,qFEgGDhX,26
bread,bed,1277.9,1,non-ortho,3,low_verbal,qkCSFiGm,21
bread,bed,1637.2,1,non-ortho,4.166667,high_verbal,qPOXJpNv,7
bread,bed,2757.8,0,non-ortho,4.416667,high_verbal,Qy5J1Mxs,42
bread,bed,2021,0,non-ortho,2.58,low_verbal,rdIExOr9,46
bread,bed,1881.2,0,non-ortho,4.166667,high_verbal,RHqN8QGm,10
bread,bed,1511.9,1,non-ortho,4.67,high_verbal,RlmJUu78,23
bread,bed,2089.4,1,non-ortho,4.25,high_verbal,sZLRQDIR,38
bread,bed,2999.6,1,non-ortho,2.33,low_verbal,TFWelN7f,19
bread,bed,1230.1,1,non-ortho,4.25,high_verbal,ts7nbQkN,29
bread,bed,1464.3,1,non-ortho,4.583333333,high_verbal,U8Rxi9rz,41
bread,bed,1522.6,1,non-ortho,1.67,low_verbal,UhCBWnbb,13
bread,bed,943.7,1,non-ortho,2.17,low_verbal,vhsbIoXa,53
bread,bed,1437,1,non-ortho,2.83,low_verbal,VxHNyXXR,23
bread,bed,2154.8,1,non-ortho,2.67,low_verbal,wDmKNbjb,45
bread,bed,1383.4,1,non-ortho,4.666666667,high_verbal,WewWn58j,43
bread,bed,2097.1,1,non-ortho,3,low_verbal,xa4C6HC1,32
bread,bed,2168.5,0,non-ortho,1.75,low_verbal,Xa9ISMwC,24
bread,bed,3110.6,1,non-ortho,2.58,low_verbal,xMXJBD7Y,7
bread,bed,2392,1,non-ortho,4.833333333,high_verbal,xnNpmgQR,2
bread,bed,2339.5,1,non-ortho,4.75,high_verbal,XTcCmXvP,18
bread,bed,1850.4,1,non-ortho,4.75,high_verbal,XWkUpOyp,13
bread,bed,1733.3,1,non-ortho,4.83,high_verbal,XxuTNyUr,31
bread,bed,1886,1,non-ortho,4.666666667,high_verbal,y1Ud0IvQ,30
bread,bed,1031.7,1,non-ortho,4.583333333,high_verbal,ycrZF9Ui,38
bread,bed,2974.7,1,non-ortho,4.833333333,high_verbal,yduNAfJN,7
bread,bed,3576.3,1,non-ortho,4.92,high_verbal,yI870PhA,19
bread,bed,2766.8,1,non-ortho,4.92,high_verbal,zfMwhrdi,5
bread,bed,1582.9,1,non-ortho,2.17,low_verbal,zzU1ectZ,6
cab,king,2021.3,1,NR,2.25,low_verbal,05Wo9IGy,12
cab,king,2271.8,1,NR,1.75,low_verbal,0CxunTLR,9
cab,king,3122.3,0,NR,2.42,low_verbal,0EwA9ugv,2
cab,king,1577.4,1,NR,2.58,low_verbal,0X9nY8Ym,5
cab,king,3614,1,NR,2.833333333,low_verbal,1hM1LUCj,26
cab,king,1343.8,1,NR,4.166667,high_verbal,26Z3U4Qu,6
cab,king,4999.8,1,NR,3.083333333,low_verbal,2dXRa5Zq,42
cab,king,1461.7,1,NR,4.67,high_verbal,2Ie4vXKm,5
cab,king,2407.9,1,NR,1.83,low_verbal,3DHBLnqj,53
cab,king,1479.7,1,NR,4.92,high_verbal,3HwZ3aSO,15
cab,king,2917.6,1,NR,4.83,high_verbal,4ELANfYv,14
cab,king,2514.9,1,NR,4.833333333,high_verbal,4FubSY7J,10
cab,king,3225.3,1,NR,3.083333333,low_verbal,4KFmznfv,7
cab,king,1764.8,1,NR,1.33,low_verbal,5WF1GwNy,29
cab,king,1652.3,1,NR,4.5,high_verbal,79p4hVcb,37
cab,king,2984.5,1,NR,4.666666667,high_verbal,7eDZS0g9,26
cab,king,2579.7,1,NR,2.92,low_verbal,7rrmnKSW,28
cab,king,1648.6,1,NR,2.17,low_verbal,7rvMjiCW,7
cab,king,1747.6,1,NR,2.833333333,low_verbal,8Mnv01S8,18
cab,king,4786.6,1,NR,2.75,low_verbal,8yyEgSuX,28
cab,king,2136.7,1,NR,5,high_verbal,AvRdAeDp,34
cab,king,2584.2,1,NR,2.25,low_verbal,AZihdj82,7
cab,king,3333.1,1,NR,4.75,high_verbal,BfCux7Qy,24
cab,king,2213.4,1,NR,4.67,high_verbal,bj3SfFHq,18
cab,king,2563,1,NR,4.166667,high_verbal,c8Txd3Z5,21
cab,king,1436,1,NR,1,low_verbal,CPt18YMj,23
cab,king,1320.3,1,NR,2.916666667,low_verbal,Ds5BnIYz,12
cab,king,3368.1,1,NR,4.75,high_verbal,DuDDHkI9,31
cab,king,3066.5,1,NR,4.333333,high_verbal,duTSHxzu,35
cab,king,1984.8,1,NR,3.25,low_verbal,e3BB2RMg,17
cab,king,1559,1,NR,3.17,low_verbal,Ezm1v61p,21
cab,king,2610,1,NR,3,low_verbal,fbKqS6qy,28
cab,king,1859.7,1,NR,1.42,low_verbal,fX6rWWkd,29
cab,king,3046.6,1,NR,2.58,low_verbal,GJMX4RUC,31
cab,king,4051,1,NR,3,low_verbal,gmTxt8dp,3
cab,king,2546.9,1,NR,4.67,high_verbal,gY67hxD2,32
cab,king,2131.4,1,NR,2.42,low_verbal,HPiIXyO1,39
cab,king,2102.5,1,NR,2.833333333,low_verbal,hRiDYGB2,35
cab,king,1145.8,1,NR,4.58,high_verbal,hsk1bUWA,50
cab,king,2145.1,1,NR,4.75,high_verbal,IbadRTNw,50
cab,king,1543.8,1,NR,4.92,high_verbal,IGrNgFbi,27
cab,king,1715,1,NR,4.583333333,high_verbal,IMlP20yi,33
cab,king,1302.5,1,NR,1.92,low_verbal,JeMnPabT,5
cab,king,1415,1,NR,5,high_verbal,Ki4GHif7,6
cab,king,1680.2,1,NR,4.5,high_verbal,KPfJRNRo,17
cab,king,2956.6,1,NR,2.58,low_verbal,lAeE5wTL,6
cab,king,2924.8,1,NR,4.67,high_verbal,lcQfoynH,4
cab,king,1625.4,1,NR,4.666667,high_verbal,LpHjkqKd,33
cab,king,2241.3,1,NR,1.08,low_verbal,LyXqRZhM,33
cab,king,2671,1,NR,5,high_verbal,m6nAacjH,24
cab,king,1463.1,1,NR,4.75,high_verbal,mHkNNA58,37
cab,king,2574,1,NR,2.666666667,low_verbal,mqvAJ91n,39
cab,king,1741.6,1,NR,1.75,low_verbal,mZqk099M,10
cab,king,2187,1,NR,4.666667,high_verbal,NCar5SZo,7
cab,king,1667.5,1,NR,4.75,high_verbal,NRFUWLZO,35
cab,king,1452,1,NR,3.083333333,low_verbal,NS1YHcvi,50
cab,king,2174,1,NR,1.92,low_verbal,Ny0Ml3uz,28
cab,king,1552,1,NR,2.5,low_verbal,OE580Gi8,20
cab,king,1354.6,1,NR,4.67,high_verbal,OHHIBcMJ,53
cab,king,1411,1,NR,2.916666667,low_verbal,OwZfp5qv,3
cab,king,2906,1,NR,2.916666667,low_verbal,ozMU0TCL,32
cab,king,2510.6,1,NR,4.916666667,high_verbal,Po8DLpvd,34
cab,king,1187.5,1,NR,4.333333,high_verbal,Ps3HVmAH,50
cab,king,3107,1,NR,1.5,low_verbal,pylKRwzb,37
cab,king,1128.9,1,NR,5,high_verbal,qFEgGDhX,37
cab,king,2929.3,1,NR,3,low_verbal,qkCSFiGm,37
cab,king,1974,1,NR,4.166667,high_verbal,qPOXJpNv,31
cab,king,1608,1,NR,4.416667,high_verbal,Qy5J1Mxs,14
cab,king,2063,1,NR,2.58,low_verbal,rdIExOr9,35
cab,king,1453.2,1,NR,4.166667,high_verbal,RHqN8QGm,17
cab,king,1436.8,1,NR,4.67,high_verbal,RlmJUu78,22
cab,king,2157.5,1,NR,4.25,high_verbal,sZLRQDIR,12
cab,king,2344.1,0,NR,2.33,low_verbal,TFWelN7f,38
cab,king,1517.7,1,NR,4.25,high_verbal,ts7nbQkN,27
cab,king,1377.4,1,NR,4.583333333,high_verbal,U8Rxi9rz,9
cab,king,4869.5,1,NR,1.67,low_verbal,UhCBWnbb,49
cab,king,1482.9,1,NR,2.17,low_verbal,vhsbIoXa,17
cab,king,1361,1,NR,2.83,low_verbal,VxHNyXXR,53
cab,king,713.7999997,0,NR,2.67,low_verbal,wDmKNbjb,4
cab,king,1220.9,1,NR,4.666666667,high_verbal,WewWn58j,1
cab,king,2178.6,1,NR,3,low_verbal,xa4C6HC1,10
cab,king,1925.4,1,NR,1.75,low_verbal,Xa9ISMwC,19
cab,king,1790.9,1,NR,2.58,low_verbal,xMXJBD7Y,23
cab,king,1664,1,NR,4.833333333,high_verbal,xnNpmgQR,13
cab,king,1413.700001,1,NR,4.75,high_verbal,XTcCmXvP,17
cab,king,1393.4,1,NR,4.75,high_verbal,XWkUpOyp,49
cab,king,3670.4,1,NR,4.83,high_verbal,XxuTNyUr,17
cab,king,1664,1,NR,4.666666667,high_verbal,y1Ud0IvQ,53
cab,king,898.6,1,NR,4.583333333,high_verbal,ycrZF9Ui,14
cab,king,1533.8,1,NR,4.833333333,high_verbal,yduNAfJN,2
cab,king,1887.1,1,NR,4.92,high_verbal,yI870PhA,10
cab,king,2762.8,1,NR,4.92,high_verbal,zfMwhrdi,8
cab,king,1471.5,1,NR,2.17,low_verbal,zzU1ectZ,46
chain,plane,1503,1,non-ortho,2.25,low_verbal,05Wo9IGy,52
chain,plane,1393.6,1,non-ortho,1.75,low_verbal,0CxunTLR,46
chain,plane,991.8,1,non-ortho,2.42,low_verbal,0EwA9ugv,25
chain,plane,1353.6,1,non-ortho,2.58,low_verbal,0X9nY8Ym,36
chain,plane,2456,0,non-ortho,2.833333333,low_verbal,1hM1LUCj,43
chain,plane,1444.2,1,non-ortho,4.166667,high_verbal,26Z3U4Qu,32
chain,plane,1457.2,1,non-ortho,3.083333333,low_verbal,2dXRa5Zq,1
chain,plane,2276,1,non-ortho,4.67,high_verbal,2Ie4vXKm,46
chain,plane,2348.5,1,non-ortho,1.83,low_verbal,3DHBLnqj,23
chain,plane,1707.3,0,non-ortho,4.92,high_verbal,3HwZ3aSO,50
chain,plane,1699.7,0,non-ortho,4.83,high_verbal,4ELANfYv,6
chain,plane,2798.7,1,non-ortho,4.833333333,high_verbal,4FubSY7J,45
chain,plane,1214.5,1,non-ortho,3.083333333,low_verbal,4KFmznfv,4
chain,plane,2924.5,1,non-ortho,1.33,low_verbal,5WF1GwNy,26
chain,plane,1410.5,1,non-ortho,4.5,high_verbal,79p4hVcb,22
chain,plane,1903.2,1,non-ortho,4.666666667,high_verbal,7eDZS0g9,50
chain,plane,1759.7,1,non-ortho,2.92,low_verbal,7rrmnKSW,23
chain,plane,4265.8,0,non-ortho,2.17,low_verbal,7rvMjiCW,30
chain,plane,2562.3,1,non-ortho,2.833333333,low_verbal,8Mnv01S8,41
chain,plane,1227.8,0,non-ortho,2.75,low_verbal,8yyEgSuX,49
chain,plane,1367.4,0,non-ortho,5,high_verbal,AvRdAeDp,41
chain,plane,1152.2,1,non-ortho,2.25,low_verbal,AZihdj82,12
chain,plane,1546.699999,1,non-ortho,4.75,high_verbal,BfCux7Qy,14
chain,plane,2005.3,0,non-ortho,4.67,high_verbal,bj3SfFHq,40
chain,plane,1830.1,1,non-ortho,4.166667,high_verbal,c8Txd3Z5,22
chain,plane,1331,1,non-ortho,1,low_verbal,CPt18YMj,37
chain,plane,1324.1,1,non-ortho,2.916666667,low_verbal,Ds5BnIYz,24
chain,plane,1370.7,1,non-ortho,4.75,high_verbal,DuDDHkI9,38
chain,plane,1400.5,0,non-ortho,4.333333,high_verbal,duTSHxzu,24
chain,plane,1512.9,1,non-ortho,3.25,low_verbal,e3BB2RMg,12
chain,plane,2638,0,non-ortho,3.17,low_verbal,Ezm1v61p,52
chain,plane,2240,1,non-ortho,3,low_verbal,fbKqS6qy,31
chain,plane,1713.6,1,non-ortho,1.42,low_verbal,fX6rWWkd,48
chain,plane,1168.5,1,non-ortho,2.58,low_verbal,GJMX4RUC,11
chain,plane,2568,1,non-ortho,3,low_verbal,gmTxt8dp,45
chain,plane,1868.9,1,non-ortho,4.67,high_verbal,gY67hxD2,21
chain,plane,2496.5,0,non-ortho,2.42,low_verbal,HPiIXyO1,30
chain,plane,3283.4,1,non-ortho,2.833333333,low_verbal,hRiDYGB2,11
chain,plane,1264.3,1,non-ortho,4.58,high_verbal,hsk1bUWA,43
chain,plane,1681.5,1,non-ortho,4.92,high_verbal,IGrNgFbi,7
chain,plane,1407.7,1,non-ortho,4.583333333,high_verbal,IMlP20yi,2
chain,plane,1541.6,1,non-ortho,1.92,low_verbal,JeMnPabT,31
chain,plane,2410,1,non-ortho,5,high_verbal,Ki4GHif7,48
chain,plane,1859.4,0,non-ortho,4.5,high_verbal,KPfJRNRo,45
chain,plane,1449.8,1,non-ortho,2.58,low_verbal,lAeE5wTL,39
chain,plane,2275,1,non-ortho,4.67,high_verbal,lcQfoynH,18
chain,plane,1340.8,1,non-ortho,4.666667,high_verbal,LpHjkqKd,27
chain,plane,1615.4,1,non-ortho,1.08,low_verbal,LyXqRZhM,38
chain,plane,2273,1,non-ortho,5,high_verbal,m6nAacjH,37
chain,plane,1720.1,1,non-ortho,4.75,high_verbal,mHkNNA58,32
chain,plane,1703,1,non-ortho,2.666666667,low_verbal,mqvAJ91n,51
chain,plane,1408.7,1,non-ortho,1.75,low_verbal,mZqk099M,9
chain,plane,2310,1,non-ortho,4.666667,high_verbal,NCar5SZo,8
chain,plane,1993.3,1,non-ortho,4.75,high_verbal,NRFUWLZO,47
chain,plane,1417.9,1,non-ortho,3.083333333,low_verbal,NS1YHcvi,1
chain,plane,3281.6,1,non-ortho,1.92,low_verbal,Ny0Ml3uz,49
chain,plane,1519.5,0,non-ortho,2.5,low_verbal,OE580Gi8,16
chain,plane,1831.1,1,non-ortho,4.67,high_verbal,OHHIBcMJ,44
chain,plane,1312,1,non-ortho,2.916666667,low_verbal,OwZfp5qv,10
chain,plane,1715,1,non-ortho,2.916666667,low_verbal,ozMU0TCL,2
chain,plane,1555.6,1,non-ortho,4.916666667,high_verbal,Po8DLpvd,51
chain,plane,3543.1,1,non-ortho,4.333333,high_verbal,Ps3HVmAH,28
chain,plane,1573.6,1,non-ortho,5,high_verbal,qFEgGDhX,33
chain,plane,2330.8,1,non-ortho,3,low_verbal,qkCSFiGm,36
chain,plane,2169.5,1,non-ortho,4.166667,high_verbal,qPOXJpNv,9
chain,plane,3645.1,1,non-ortho,4.416667,high_verbal,Qy5J1Mxs,29
chain,plane,2843,1,non-ortho,2.58,low_verbal,rdIExOr9,9
chain,plane,2469.1,1,non-ortho,4.166667,high_verbal,RHqN8QGm,43
chain,plane,2366.4,1,non-ortho,4.67,high_verbal,RlmJUu78,50
chain,plane,1748.6,1,non-ortho,4.25,high_verbal,sZLRQDIR,1
chain,plane,4147.8,1,non-ortho,2.33,low_verbal,TFWelN7f,36
chain,plane,3166.9,1,non-ortho,4.25,high_verbal,ts7nbQkN,23
chain,plane,4301.7,1,non-ortho,4.583333333,high_verbal,U8Rxi9rz,18
chain,plane,1386.1,0,non-ortho,1.67,low_verbal,UhCBWnbb,19
chain,plane,1334.3,1,non-ortho,2.17,low_verbal,vhsbIoXa,21
chain,plane,2595,1,non-ortho,2.83,low_verbal,VxHNyXXR,17
chain,plane,1024.6,1,non-ortho,2.67,low_verbal,wDmKNbjb,10
chain,plane,1227.1,1,non-ortho,4.666666667,high_verbal,WewWn58j,39
chain,plane,1458,1,non-ortho,3,low_verbal,xa4C6HC1,16
chain,plane,1757.1,1,non-ortho,1.75,low_verbal,Xa9ISMwC,11
chain,plane,3006.7,1,non-ortho,2.58,low_verbal,xMXJBD7Y,4
chain,plane,1315,1,non-ortho,4.833333333,high_verbal,xnNpmgQR,34
chain,plane,1497.2,1,non-ortho,4.75,high_verbal,XTcCmXvP,49
chain,plane,1204.2,1,non-ortho,4.75,high_verbal,XWkUpOyp,6
chain,plane,1961.8,1,non-ortho,4.83,high_verbal,XxuTNyUr,35
chain,plane,4651,0,non-ortho,4.666666667,high_verbal,y1Ud0IvQ,9
chain,plane,1099.9,1,non-ortho,4.583333333,high_verbal,ycrZF9Ui,15
chain,plane,926.6,1,non-ortho,4.833333333,high_verbal,yduNAfJN,53
chain,plane,1415.9,1,non-ortho,4.92,high_verbal,yI870PhA,31
chain,plane,2848.1,1,non-ortho,4.92,high_verbal,zfMwhrdi,30
chain,plane,1885.3,1,non-ortho,2.17,low_verbal,zzU1ectZ,5
chair,drawer,3003.8,1,NR,2.25,low_verbal,05Wo9IGy,15
chair,drawer,1757.7,1,NR,1.75,low_verbal,0CxunTLR,50
chair,drawer,725.8,0,NR,2.42,low_verbal,0EwA9ugv,51
chair,drawer,1424.5,1,NR,2.58,low_verbal,0X9nY8Ym,29
chair,drawer,2243,1,NR,2.833333333,low_verbal,1hM1LUCj,40
chair,drawer,2355.3,1,NR,4.166667,high_verbal,26Z3U4Qu,3
chair,drawer,3840.4,1,NR,3.083333333,low_verbal,2dXRa5Zq,40
chair,drawer,3458,1,NR,4.67,high_verbal,2Ie4vXKm,35
chair,drawer,3222.7,1,NR,1.83,low_verbal,3DHBLnqj,8
chair,drawer,2334.6,1,NR,4.92,high_verbal,3HwZ3aSO,23
chair,drawer,2508.3,1,NR,4.83,high_verbal,4ELANfYv,1
chair,drawer,2196.8,1,NR,4.833333333,high_verbal,4FubSY7J,6
chair,drawer,2058.1,1,NR,3.083333333,low_verbal,4KFmznfv,30
chair,drawer,1640.1,1,NR,1.33,low_verbal,5WF1GwNy,51
chair,drawer,1822.1,1,NR,4.5,high_verbal,79p4hVcb,50
chair,drawer,2076.7,1,NR,4.666666667,high_verbal,7eDZS0g9,5
chair,drawer,2687.4,1,NR,2.92,low_verbal,7rrmnKSW,6
chair,drawer,1881.8,1,NR,2.17,low_verbal,7rvMjiCW,47
chair,drawer,1483.4,1,NR,2.833333333,low_verbal,8Mnv01S8,37
chair,drawer,4677.1,0,NR,2.75,low_verbal,8yyEgSuX,50
chair,drawer,1478.7,1,NR,5,high_verbal,AvRdAeDp,24
chair,drawer,2053.5,1,NR,2.25,low_verbal,AZihdj82,11
chair,drawer,2418.200001,1,NR,4.75,high_verbal,BfCux7Qy,51
chair,drawer,3361,1,NR,4.67,high_verbal,bj3SfFHq,33
chair,drawer,2211.5,1,NR,4.166667,high_verbal,c8Txd3Z5,5
chair,drawer,1354,1,NR,1,low_verbal,CPt18YMj,28
chair,drawer,1933,1,NR,2.916666667,low_verbal,Ds5BnIYz,46
chair,drawer,1621.2,1,NR,4.75,high_verbal,DuDDHkI9,45
chair,drawer,1725.4,1,NR,4.333333,high_verbal,duTSHxzu,32
chair,drawer,1978.9,1,NR,3.25,low_verbal,e3BB2RMg,15
chair,drawer,1906,1,NR,3.17,low_verbal,Ezm1v61p,50
chair,drawer,1430,1,NR,3,low_verbal,fbKqS6qy,34
chair,drawer,1634.7,1,NR,1.42,low_verbal,fX6rWWkd,12
chair,drawer,2103.3,1,NR,2.58,low_verbal,GJMX4RUC,24
chair,drawer,1222.9,1,NR,4.67,high_verbal,gY67hxD2,48
chair,drawer,2824.3,1,NR,2.42,low_verbal,HPiIXyO1,40
chair,drawer,1906.3,1,NR,2.833333333,low_verbal,hRiDYGB2,18
chair,drawer,2282.5,1,NR,4.58,high_verbal,hsk1bUWA,7
chair,drawer,2980,1,NR,4.75,high_verbal,IbadRTNw,47
chair,drawer,1918.8,1,NR,4.92,high_verbal,IGrNgFbi,14
chair,drawer,2160.3,1,NR,4.583333333,high_verbal,IMlP20yi,25
chair,drawer,2202.1,1,NR,1.92,low_verbal,JeMnPabT,29
chair,drawer,2977,1,NR,5,high_verbal,Ki4GHif7,26
chair,drawer,1334.6,1,NR,4.5,high_verbal,KPfJRNRo,28
chair,drawer,1885.5,1,NR,2.58,low_verbal,lAeE5wTL,8
chair,drawer,2092.3,1,NR,4.666667,high_verbal,LpHjkqKd,24
chair,drawer,3090.5,1,NR,1.08,low_verbal,LyXqRZhM,6
chair,drawer,2540.3,1,NR,4.75,high_verbal,mHkNNA58,35
chair,drawer,1639,1,NR,2.666666667,low_verbal,mqvAJ91n,20
chair,drawer,1654.7,1,NR,1.75,low_verbal,mZqk099M,7
chair,drawer,1928,1,NR,4.666667,high_verbal,NCar5SZo,52
chair,drawer,2313.1,1,NR,4.75,high_verbal,NRFUWLZO,4
chair,drawer,1864,1,NR,3.083333333,low_verbal,NS1YHcvi,37
chair,drawer,2111.2,1,NR,1.92,low_verbal,Ny0Ml3uz,16
chair,drawer,1498.2,1,NR,2.5,low_verbal,OE580Gi8,11
chair,drawer,2270.3,1,NR,4.67,high_verbal,OHHIBcMJ,43
chair,drawer,4297,1,NR,2.916666667,low_verbal,OwZfp5qv,31
chair,drawer,2693,1,NR,2.916666667,low_verbal,ozMU0TCL,1
chair,drawer,2250.2,1,NR,4.916666667,high_verbal,Po8DLpvd,17
chair,drawer,1553.8,1,NR,4.333333,high_verbal,Ps3HVmAH,24
chair,drawer,1960.7,1,NR,1.5,low_verbal,pylKRwzb,19
chair,drawer,2034.6,1,NR,5,high_verbal,qFEgGDhX,43
chair,drawer,4610.8,1,NR,3,low_verbal,qkCSFiGm,1
chair,drawer,1942.5,1,NR,4.166667,high_verbal,qPOXJpNv,6
chair,drawer,1434.1,1,NR,4.416667,high_verbal,Qy5J1Mxs,30
chair,drawer,4882,1,NR,2.58,low_verbal,rdIExOr9,20
chair,drawer,1938,1,NR,4.166667,high_verbal,RHqN8QGm,25
chair,drawer,1326.8,1,NR,4.67,high_verbal,RlmJUu78,47
chair,drawer,1955.9,1,NR,4.25,high_verbal,sZLRQDIR,14
chair,drawer,1734.9,1,NR,4.25,high_verbal,ts7nbQkN,37
chair,drawer,1771.8,1,NR,4.583333333,high_verbal,U8Rxi9rz,36
chair,drawer,4370.8,1,NR,1.67,low_verbal,UhCBWnbb,37
chair,drawer,1347.6,1,NR,2.17,low_verbal,vhsbIoXa,11
chair,drawer,4429,1,NR,2.83,low_verbal,VxHNyXXR,45
chair,drawer,1254,1,NR,2.67,low_verbal,wDmKNbjb,53
chair,drawer,1043.9,1,NR,4.666666667,high_verbal,WewWn58j,12
chair,drawer,2370,1,NR,3,low_verbal,xa4C6HC1,6
chair,drawer,2028.2,1,NR,1.75,low_verbal,Xa9ISMwC,15
chair,drawer,1741.8,1,NR,2.58,low_verbal,xMXJBD7Y,32
chair,drawer,1633,1,NR,4.833333333,high_verbal,xnNpmgQR,30
chair,drawer,1381.8,1,NR,4.75,high_verbal,XTcCmXvP,42
chair,drawer,3033.6,1,NR,4.75,high_verbal,XWkUpOyp,22
chair,drawer,2220.6,1,NR,4.83,high_verbal,XxuTNyUr,52
chair,drawer,1490,1,NR,4.666666667,high_verbal,y1Ud0IvQ,22
chair,drawer,1163.1,1,NR,4.583333333,high_verbal,ycrZF9Ui,48
chair,drawer,1180.3,1,NR,4.833333333,high_verbal,yduNAfJN,51
chair,drawer,1587.5,1,NR,4.92,high_verbal,yI870PhA,53
chair,drawer,3974.5,1,NR,4.92,high_verbal,zfMwhrdi,32
chair,drawer,2001.3,1,NR,2.17,low_verbal,zzU1ectZ,37
claw,saw,2189.9,1,ortho,2.25,low_verbal,05Wo9IGy,53
claw,saw,1950.1,1,ortho,1.75,low_verbal,0CxunTLR,8
claw,saw,1068.5,0,ortho,2.42,low_verbal,0EwA9ugv,43
claw,saw,1940.1,1,ortho,2.58,low_verbal,0X9nY8Ym,45
claw,saw,3330,1,ortho,2.833333333,low_verbal,1hM1LUCj,14
claw,saw,1428.9,1,ortho,4.166667,high_verbal,26Z3U4Qu,50
claw,saw,1557.1,1,ortho,3.083333333,low_verbal,2dXRa5Zq,43
claw,saw,1480.4,1,ortho,4.67,high_verbal,2Ie4vXKm,50
claw,saw,1550.2,1,ortho,1.83,low_verbal,3DHBLnqj,35
claw,saw,1838.7,0,ortho,4.92,high_verbal,3HwZ3aSO,42
claw,saw,1638,1,ortho,4.83,high_verbal,4ELANfYv,46
claw,saw,1839.5,1,ortho,4.833333333,high_verbal,4FubSY7J,46
claw,saw,1711.8,1,ortho,3.083333333,low_verbal,4KFmznfv,37
claw,saw,2333,1,ortho,1.33,low_verbal,5WF1GwNy,30
claw,saw,1414,1,ortho,4.5,high_verbal,79p4hVcb,47
claw,saw,1263.4,1,ortho,4.666666667,high_verbal,7eDZS0g9,47
claw,saw,1534.4,1,ortho,2.92,low_verbal,7rrmnKSW,26
claw,saw,1424,1,ortho,2.17,low_verbal,7rvMjiCW,16
claw,saw,1674.1,1,ortho,2.833333333,low_verbal,8Mnv01S8,48
claw,saw,2573.2,0,ortho,2.75,low_verbal,8yyEgSuX,17
claw,saw,1292.4,1,ortho,5,high_verbal,AvRdAeDp,47
claw,saw,1307.5,1,ortho,2.25,low_verbal,AZihdj82,41
claw,saw,3442.700001,1,ortho,4.75,high_verbal,BfCux7Qy,49
claw,saw,2077.8,1,ortho,4.67,high_verbal,bj3SfFHq,30
claw,saw,2229.4,1,ortho,4.166667,high_verbal,c8Txd3Z5,15
claw,saw,1511,1,ortho,1,low_verbal,CPt18YMj,40
claw,saw,1231.5,1,ortho,2.916666667,low_verbal,Ds5BnIYz,4
claw,saw,1518.2,1,ortho,4.75,high_verbal,DuDDHkI9,51
claw,saw,1728.3,1,ortho,4.333333,high_verbal,duTSHxzu,11
claw,saw,1357.9,1,ortho,3.25,low_verbal,e3BB2RMg,48
claw,saw,1447,1,ortho,3.17,low_verbal,Ezm1v61p,4
claw,saw,1793,1,ortho,3,low_verbal,fbKqS6qy,26
claw,saw,1958,1,ortho,1.42,low_verbal,fX6rWWkd,11
claw,saw,1495.5,1,ortho,2.58,low_verbal,GJMX4RUC,9
claw,saw,1502,1,ortho,3,low_verbal,gmTxt8dp,51
claw,saw,1432.9,1,ortho,4.67,high_verbal,gY67hxD2,6
claw,saw,3553.1,0,ortho,2.42,low_verbal,HPiIXyO1,20
claw,saw,1635.6,1,ortho,2.833333333,low_verbal,hRiDYGB2,3
claw,saw,1125.2,1,ortho,4.58,high_verbal,hsk1bUWA,19
claw,saw,4237.7,1,ortho,4.75,high_verbal,IbadRTNw,51
claw,saw,2255.7,0,ortho,4.92,high_verbal,IGrNgFbi,35
claw,saw,1852.1,1,ortho,4.583333333,high_verbal,IMlP20yi,28
claw,saw,1453.4,1,ortho,1.92,low_verbal,JeMnPabT,19
claw,saw,1929,1,ortho,5,high_verbal,Ki4GHif7,22
claw,saw,1333.3,1,ortho,4.5,high_verbal,KPfJRNRo,14
claw,saw,2780,1,ortho,2.58,low_verbal,lAeE5wTL,36
claw,saw,1589.4,1,ortho,4.67,high_verbal,lcQfoynH,8
claw,saw,1642.8,1,ortho,4.666667,high_verbal,LpHjkqKd,51
claw,saw,2563.5,1,ortho,1.08,low_verbal,LyXqRZhM,12
claw,saw,1658,1,ortho,5,high_verbal,m6nAacjH,50
claw,saw,1474.8,1,ortho,4.75,high_verbal,mHkNNA58,16
claw,saw,2138,1,ortho,2.666666667,low_verbal,mqvAJ91n,6
claw,saw,1837,1,ortho,1.75,low_verbal,mZqk099M,22
claw,saw,1674,1,ortho,4.666667,high_verbal,NCar5SZo,29
claw,saw,1620.2,1,ortho,4.75,high_verbal,NRFUWLZO,19
claw,saw,1892.9,1,ortho,3.083333333,low_verbal,NS1YHcvi,39
claw,saw,1735.6,1,ortho,1.92,low_verbal,Ny0Ml3uz,12
claw,saw,1154.5,1,ortho,2.5,low_verbal,OE580Gi8,28
claw,saw,1806.7,1,ortho,4.67,high_verbal,OHHIBcMJ,47
claw,saw,1563,1,ortho,2.916666667,low_verbal,OwZfp5qv,4
claw,saw,2029,1,ortho,2.916666667,low_verbal,ozMU0TCL,39
claw,saw,1850.8,1,ortho,4.916666667,high_verbal,Po8DLpvd,16
claw,saw,1870.1,1,ortho,4.333333,high_verbal,Ps3HVmAH,2
claw,saw,4519.1,0,ortho,1.5,low_verbal,pylKRwzb,18
claw,saw,1208,1,ortho,5,high_verbal,qFEgGDhX,14
claw,saw,1160.9,1,ortho,3,low_verbal,qkCSFiGm,38
claw,saw,1678.8,1,ortho,4.166667,high_verbal,qPOXJpNv,47
claw,saw,2448.3,1,ortho,4.416667,high_verbal,Qy5J1Mxs,41
claw,saw,2252,1,ortho,2.58,low_verbal,rdIExOr9,15
claw,saw,1259.9,1,ortho,4.166667,high_verbal,RHqN8QGm,32
claw,saw,1785.3,1,ortho,4.67,high_verbal,RlmJUu78,6
claw,saw,1561.1,1,ortho,4.25,high_verbal,sZLRQDIR,20
claw,saw,2063.2,1,ortho,2.33,low_verbal,TFWelN7f,20
claw,saw,1362.6,1,ortho,4.25,high_verbal,ts7nbQkN,22
claw,saw,2091.4,1,ortho,4.583333333,high_verbal,U8Rxi9rz,20
claw,saw,1846.6,1,ortho,1.67,low_verbal,UhCBWnbb,53
claw,saw,1575.8,1,ortho,2.17,low_verbal,vhsbIoXa,35
claw,saw,1796,1,ortho,2.83,low_verbal,VxHNyXXR,28
claw,saw,3923.3,1,ortho,2.67,low_verbal,wDmKNbjb,34
claw,saw,1422.2,1,ortho,4.666666667,high_verbal,WewWn58j,17
claw,saw,2612.3,1,ortho,3,low_verbal,xa4C6HC1,8
claw,saw,1843.9,0,ortho,1.75,low_verbal,Xa9ISMwC,44
claw,saw,1448,1,ortho,2.58,low_verbal,xMXJBD7Y,25
claw,saw,3092,1,ortho,4.833333333,high_verbal,xnNpmgQR,41
claw,saw,1508.7,1,ortho,4.75,high_verbal,XTcCmXvP,44
claw,saw,1719.5,1,ortho,4.75,high_verbal,XWkUpOyp,9
claw,saw,1829.1,1,ortho,4.83,high_verbal,XxuTNyUr,26
claw,saw,1545,1,ortho,4.666666667,high_verbal,y1Ud0IvQ,28
claw,saw,1105.2,1,ortho,4.583333333,high_verbal,ycrZF9Ui,31
claw,saw,1408.1,1,ortho,4.833333333,high_verbal,yduNAfJN,37
claw,saw,2330.6,1,ortho,4.92,high_verbal,yI870PhA,47
claw,saw,2103.8,1,ortho,4.92,high_verbal,zfMwhrdi,37
claw,saw,2255.7,1,ortho,2.17,low_verbal,zzU1ectZ,25
clock,sock,1264.2,1,ortho,2.25,low_verbal,05Wo9IGy,10
clock,brain,2142.9,1,NR,2.25,low_verbal,05Wo9IGy,43
clock,brain,1613.9,1,NR,1.75,low_verbal,0CxunTLR,4
clock,sock,1753.6,1,ortho,1.75,low_verbal,0CxunTLR,5
clock,sock,1221.9,1,ortho,2.42,low_verbal,0EwA9ugv,16
clock,brain,1033.9,0,NR,2.42,low_verbal,0EwA9ugv,41
clock,brain,1956.2,1,NR,2.58,low_verbal,0X9nY8Ym,15
clock,sock,1828.1,1,ortho,2.58,low_verbal,0X9nY8Ym,34
clock,sock,1570,1,ortho,2.833333333,low_verbal,1hM1LUCj,7
clock,brain,1659,1,NR,2.833333333,low_verbal,1hM1LUCj,11
clock,brain,1826.5,1,NR,4.166667,high_verbal,26Z3U4Qu,17
clock,sock,1751.7,1,ortho,4.166667,high_verbal,26Z3U4Qu,48
clock,sock,2417.2,0,ortho,3.083333333,low_verbal,2dXRa5Zq,8
clock,brain,2757.3,1,NR,3.083333333,low_verbal,2dXRa5Zq,22
clock,brain,1295.6,1,NR,4.67,high_verbal,2Ie4vXKm,25
clock,sock,1256.7,0,ortho,4.67,high_verbal,2Ie4vXKm,32
clock,brain,2977,1,NR,1.83,low_verbal,3DHBLnqj,1
clock,sock,2536.5,0,ortho,1.83,low_verbal,3DHBLnqj,30
clock,brain,2077.4,1,NR,4.92,high_verbal,3HwZ3aSO,4
clock,sock,1525,1,ortho,4.92,high_verbal,3HwZ3aSO,30
clock,brain,2176.2,1,NR,4.83,high_verbal,4ELANfYv,8
clock,sock,1971,1,ortho,4.83,high_verbal,4ELANfYv,23
clock,brain,2453.8,1,NR,4.833333333,high_verbal,4FubSY7J,5
clock,sock,1504.4,1,ortho,4.833333333,high_verbal,4FubSY7J,32
clock,sock,2747.8,1,ortho,3.083333333,low_verbal,4KFmznfv,40
clock,brain,1140.4,1,NR,3.083333333,low_verbal,4KFmznfv,51
clock,sock,1538.6,1,ortho,1.33,low_verbal,5WF1GwNy,1
clock,brain,1365.6,1,NR,1.33,low_verbal,5WF1GwNy,17
clock,sock,1444.5,1,ortho,4.5,high_verbal,79p4hVcb,38
clock,brain,1243.5,1,NR,4.5,high_verbal,79p4hVcb,45
clock,brain,1400.9,1,NR,4.666666667,high_verbal,7eDZS0g9,29
clock,sock,2772,1,ortho,4.666666667,high_verbal,7eDZS0g9,52
clock,sock,1359.6,1,ortho,2.92,low_verbal,7rrmnKSW,18
clock,brain,1268,1,NR,2.92,low_verbal,7rrmnKSW,53
clock,brain,1357.4,1,NR,2.17,low_verbal,7rvMjiCW,5
clock,sock,2648,1,ortho,2.17,low_verbal,7rvMjiCW,39
clock,sock,1518.8,1,ortho,2.833333333,low_verbal,8Mnv01S8,4
clock,brain,1609.2,1,NR,2.833333333,low_verbal,8Mnv01S8,17
clock,brain,2450.1,1,NR,2.75,low_verbal,8yyEgSuX,20
clock,sock,3724.8,0,ortho,2.75,low_verbal,8yyEgSuX,43
clock,sock,1080.8,1,ortho,5,high_verbal,AvRdAeDp,52
clock,brain,1134.8,1,NR,5,high_verbal,AvRdAeDp,53
clock,sock,1105.9,1,ortho,2.25,low_verbal,AZihdj82,17
clock,brain,1112.8,1,NR,2.25,low_verbal,AZihdj82,22
clock,sock,3334.1,1,ortho,4.75,high_verbal,BfCux7Qy,10
clock,brain,1659.9,1,NR,4.75,high_verbal,BfCux7Qy,42
clock,brain,2308.5,1,NR,4.67,high_verbal,bj3SfFHq,24
clock,sock,2342.7,1,ortho,4.67,high_verbal,bj3SfFHq,36
clock,sock,1566.1,1,ortho,4.166667,high_verbal,c8Txd3Z5,9
clock,brain,1663.5,1,NR,4.166667,high_verbal,c8Txd3Z5,39
clock,brain,1715,1,NR,1,low_verbal,CPt18YMj,16
clock,sock,1924,1,ortho,1,low_verbal,CPt18YMj,44
clock,brain,1216.3,1,NR,2.916666667,low_verbal,Ds5BnIYz,18
clock,sock,1699.6,1,ortho,2.916666667,low_verbal,Ds5BnIYz,32
clock,sock,3505.4,1,ortho,4.75,high_verbal,DuDDHkI9,36
clock,brain,2249.2,1,NR,4.75,high_verbal,DuDDHkI9,43
clock,brain,1745,1,NR,4.333333,high_verbal,duTSHxzu,8
clock,sock,1207.2,1,ortho,4.333333,high_verbal,duTSHxzu,22
clock,sock,2548.9,1,ortho,3.25,low_verbal,e3BB2RMg,24
clock,brain,1535.2,1,NR,3.25,low_verbal,e3BB2RMg,41
clock,brain,1481,1,NR,3.17,low_verbal,Ezm1v61p,31
clock,sock,2099,0,ortho,3.17,low_verbal,Ezm1v61p,36
clock,sock,3171,0,ortho,3,low_verbal,fbKqS6qy,17
clock,brain,1363,1,NR,3,low_verbal,fbKqS6qy,20
clock,brain,1792.4,1,NR,1.42,low_verbal,fX6rWWkd,21
clock,sock,3326.8,1,ortho,1.42,low_verbal,fX6rWWkd,45
clock,brain,1097.7,1,NR,2.58,low_verbal,GJMX4RUC,38
clock,sock,1372.7,1,ortho,2.58,low_verbal,GJMX4RUC,53
clock,brain,2139,1,NR,3,low_verbal,gmTxt8dp,28
clock,sock,2038.5,1,ortho,4.67,high_verbal,gY67hxD2,14
clock,brain,1354.7,1,NR,4.67,high_verbal,gY67hxD2,44
clock,brain,1742.3,1,NR,2.42,low_verbal,HPiIXyO1,2
clock,sock,4430,1,ortho,2.42,low_verbal,HPiIXyO1,21
clock,brain,4407.7,1,NR,2.833333333,low_verbal,hRiDYGB2,50
clock,sock,2493.5,0,ortho,2.833333333,low_verbal,hRiDYGB2,51
clock,brain,1317.5,1,NR,4.58,high_verbal,hsk1bUWA,21
clock,sock,1082.7,1,ortho,4.58,high_verbal,hsk1bUWA,47
clock,brain,1461.7,1,NR,4.75,high_verbal,IbadRTNw,3
clock,sock,2239,1,ortho,4.75,high_verbal,IbadRTNw,18
clock,brain,1648.3,1,NR,4.92,high_verbal,IGrNgFbi,17
clock,sock,1422.6,1,ortho,4.92,high_verbal,IGrNgFbi,42
clock,sock,1441.7,1,ortho,4.583333333,high_verbal,IMlP20yi,1
clock,brain,1458.6,1,NR,4.583333333,high_verbal,IMlP20yi,42
clock,sock,1305.4,1,ortho,1.92,low_verbal,JeMnPabT,23
clock,brain,1021.5,1,NR,1.92,low_verbal,JeMnPabT,26
clock,sock,1952,1,ortho,5,high_verbal,Ki4GHif7,49
clock,brain,1574,1,NR,5,high_verbal,Ki4GHif7,53
clock,sock,1363.6,1,ortho,4.5,high_verbal,KPfJRNRo,30
clock,brain,1202.9,1,NR,4.5,high_verbal,KPfJRNRo,51
clock,brain,1508.2,1,NR,2.58,low_verbal,lAeE5wTL,5
clock,sock,1170.8,1,ortho,2.58,low_verbal,lAeE5wTL,13
clock,brain,2420.3,1,NR,4.67,high_verbal,lcQfoynH,39
clock,sock,1499.9,1,ortho,4.67,high_verbal,lcQfoynH,48
clock,brain,1326.1,1,NR,4.666667,high_verbal,LpHjkqKd,13
clock,sock,1110.8,1,ortho,4.666667,high_verbal,LpHjkqKd,42
clock,brain,2157.5,1,NR,1.08,low_verbal,LyXqRZhM,3
clock,sock,1695.3,1,ortho,1.08,low_verbal,LyXqRZhM,7
clock,brain,3082,1,NR,5,high_verbal,m6nAacjH,4
clock,sock,1665,1,ortho,5,high_verbal,m6nAacjH,12
clock,sock,1648.4,1,ortho,4.75,high_verbal,mHkNNA58,6
clock,brain,1556.6,1,NR,4.75,high_verbal,mHkNNA58,20
clock,brain,2139,1,NR,2.666666667,low_verbal,mqvAJ91n,5
clock,sock,1873,1,ortho,2.666666667,low_verbal,mqvAJ91n,15
clock,sock,1566.2,1,ortho,1.75,low_verbal,mZqk099M,3
clock,brain,1565.7,1,NR,1.75,low_verbal,mZqk099M,26
clock,sock,1764,1,ortho,4.666667,high_verbal,NCar5SZo,30
clock,brain,2612,1,NR,4.666667,high_verbal,NCar5SZo,38
clock,brain,1437.8,1,NR,4.75,high_verbal,NRFUWLZO,22
clock,sock,1765,1,ortho,4.75,high_verbal,NRFUWLZO,31
clock,sock,2322.1,1,ortho,3.083333333,low_verbal,NS1YHcvi,16
clock,brain,1487.1,1,NR,3.083333333,low_verbal,NS1YHcvi,18
clock,brain,2266.2,0,NR,1.92,low_verbal,Ny0Ml3uz,30
clock,sock,2466.7,1,ortho,1.92,low_verbal,Ny0Ml3uz,46
clock,brain,1621.5,1,NR,2.5,low_verbal,OE580Gi8,4
clock,sock,1157.4,1,ortho,2.5,low_verbal,OE580Gi8,13
clock,brain,1501.2,1,NR,4.67,high_verbal,OHHIBcMJ,2
clock,sock,1198,0,ortho,4.67,high_verbal,OHHIBcMJ,12
clock,brain,1588,1,NR,2.916666667,low_verbal,OwZfp5qv,39
clock,sock,1502,1,ortho,2.916666667,low_verbal,OwZfp5qv,52
clock,brain,2597,1,NR,2.916666667,low_verbal,ozMU0TCL,20
clock,sock,1346,0,ortho,2.916666667,low_verbal,ozMU0TCL,21
clock,brain,2205.3,1,NR,4.916666667,high_verbal,Po8DLpvd,36
clock,sock,1811.5,1,ortho,4.916666667,high_verbal,Po8DLpvd,42
clock,brain,1628,1,NR,4.333333,high_verbal,Ps3HVmAH,18
clock,sock,870.3000001,0,ortho,4.333333,high_verbal,Ps3HVmAH,51
clock,brain,1522.7,1,NR,1.5,low_verbal,pylKRwzb,3
clock,sock,1284.8,0,ortho,1.5,low_verbal,pylKRwzb,8
clock,sock,1632.5,1,ortho,5,high_verbal,qFEgGDhX,9
clock,brain,1736.8,1,NR,5,high_verbal,qFEgGDhX,11
clock,sock,1721.3,1,ortho,3,low_verbal,qkCSFiGm,28
clock,brain,1004.4,1,NR,3,low_verbal,qkCSFiGm,40
clock,brain,1860.8,1,NR,4.166667,high_verbal,qPOXJpNv,5
clock,sock,1560.8,1,ortho,4.166667,high_verbal,qPOXJpNv,52
clock,sock,1518.8,1,ortho,4.416667,high_verbal,Qy5J1Mxs,2
clock,brain,1396.4,1,NR,4.416667,high_verbal,Qy5J1Mxs,9
clock,brain,1677,1,NR,2.58,low_verbal,rdIExOr9,1
clock,sock,3217,1,ortho,2.58,low_verbal,rdIExOr9,33
clock,brain,1016.1,1,NR,4.166667,high_verbal,RHqN8QGm,39
clock,sock,1453.4,1,ortho,4.166667,high_verbal,RHqN8QGm,46
clock,sock,1283.6,1,ortho,4.67,high_verbal,RlmJUu78,8
clock,brain,1907.9,1,NR,4.67,high_verbal,RlmJUu78,37
clock,brain,1381.1,1,NR,4.25,high_verbal,sZLRQDIR,47
clock,sock,1796.6,1,ortho,4.25,high_verbal,sZLRQDIR,48
clock,sock,2060.3,1,ortho,2.33,low_verbal,TFWelN7f,26
clock,brain,2056.6,1,NR,2.33,low_verbal,TFWelN7f,31
clock,sock,2825.2,1,ortho,4.25,high_verbal,ts7nbQkN,21
clock,brain,1890.3,1,NR,4.25,high_verbal,ts7nbQkN,31
clock,brain,1415.1,1,NR,4.583333333,high_verbal,U8Rxi9rz,13
clock,sock,1934.2,1,ortho,4.583333333,high_verbal,U8Rxi9rz,52
clock,sock,1677.1,1,ortho,1.67,low_verbal,UhCBWnbb,35
clock,brain,2280.6,1,NR,1.67,low_verbal,UhCBWnbb,47
clock,brain,1254.6,1,NR,2.17,low_verbal,vhsbIoXa,7
clock,sock,947.1,1,ortho,2.17,low_verbal,vhsbIoXa,14
clock,sock,2518,1,ortho,2.83,low_verbal,VxHNyXXR,4
clock,brain,1807,1,NR,2.83,low_verbal,VxHNyXXR,43
clock,sock,796,1,ortho,2.67,low_verbal,wDmKNbjb,6
clock,brain,1051.1,1,NR,2.67,low_verbal,wDmKNbjb,49
clock,sock,1474.2,1,ortho,4.666666667,high_verbal,WewWn58j,24
clock,brain,1720,1,NR,4.666666667,high_verbal,WewWn58j,38
clock,brain,2578.9,1,NR,3,low_verbal,xa4C6HC1,1
clock,sock,1647.1,0,ortho,3,low_verbal,xa4C6HC1,22
clock,brain,1829.3,1,NR,1.75,low_verbal,Xa9ISMwC,14
clock,sock,2426.1,1,ortho,1.75,low_verbal,Xa9ISMwC,47
clock,sock,2269.6,1,ortho,2.58,low_verbal,xMXJBD7Y,18
clock,brain,1531.2,1,NR,2.58,low_verbal,xMXJBD7Y,30
clock,sock,1876,1,ortho,4.833333333,high_verbal,xnNpmgQR,22
clock,brain,1350,1,NR,4.833333333,high_verbal,xnNpmgQR,24
clock,brain,1158.8,1,NR,4.75,high_verbal,XTcCmXvP,21
clock,sock,1250,0,ortho,4.75,high_verbal,XTcCmXvP,32
clock,sock,1109.3,1,ortho,4.75,high_verbal,XWkUpOyp,16
clock,brain,1240.9,1,NR,4.75,high_verbal,XWkUpOyp,38
clock,sock,1248.9,1,ortho,4.83,high_verbal,XxuTNyUr,19
clock,brain,1300.1,1,NR,4.83,high_verbal,XxuTNyUr,44
clock,brain,1266,1,NR,4.666666667,high_verbal,y1Ud0IvQ,25
clock,sock,2016,1,ortho,4.666666667,high_verbal,y1Ud0IvQ,32
clock,brain,1162.5,1,NR,4.583333333,high_verbal,ycrZF9Ui,30
clock,sock,1075.3,1,ortho,4.583333333,high_verbal,ycrZF9Ui,40
clock,brain,1709.3,1,NR,4.833333333,high_verbal,yduNAfJN,10
clock,sock,2191.6,1,ortho,4.833333333,high_verbal,yduNAfJN,30
clock,brain,2361,1,NR,4.92,high_verbal,yI870PhA,18
clock,sock,1558.1,1,ortho,4.92,high_verbal,yI870PhA,48
clock,sock,2194.8,1,ortho,4.92,high_verbal,zfMwhrdi,11
clock,brain,1764.6,1,NR,4.92,high_verbal,zfMwhrdi,19
clock,sock,1717.8,1,ortho,2.17,low_verbal,zzU1ectZ,14
clock,brain,1975.2,1,NR,2.17,low_verbal,zzU1ectZ,30
cone,bone,1315.3,1,ortho,2.25,low_verbal,05Wo9IGy,3
cone,bone,2213.4,1,ortho,1.75,low_verbal,0CxunTLR,1
cone,bone,873.6999999,0,ortho,2.42,low_verbal,0EwA9ugv,42
cone,bone,1328.3,1,ortho,2.58,low_verbal,0X9nY8Ym,11
cone,bone,1823,1,ortho,2.833333333,low_verbal,1hM1LUCj,17
cone,bone,1475.3,1,ortho,4.166667,high_verbal,26Z3U4Qu,37
cone,bone,1986.5,0,ortho,3.083333333,low_verbal,2dXRa5Zq,7
cone,bone,1231.5,1,ortho,4.67,high_verbal,2Ie4vXKm,1
cone,bone,1712.9,1,ortho,1.83,low_verbal,3DHBLnqj,25
cone,bone,1961.7,1,ortho,4.92,high_verbal,3HwZ3aSO,32
cone,bone,1762.5,1,ortho,4.83,high_verbal,4ELANfYv,7
cone,bone,1527.7,1,ortho,4.833333333,high_verbal,4FubSY7J,38
cone,bone,1980.9,1,ortho,3.083333333,low_verbal,4KFmznfv,1
cone,bone,3350.4,0,ortho,1.33,low_verbal,5WF1GwNy,45
cone,bone,2204.8,1,ortho,4.5,high_verbal,79p4hVcb,44
cone,bone,3092.1,1,ortho,4.666666667,high_verbal,7eDZS0g9,14
cone,bone,1338.7,1,ortho,2.92,low_verbal,7rrmnKSW,21
cone,bone,1465.7,1,ortho,2.17,low_verbal,7rvMjiCW,14
cone,bone,3939.3,0,ortho,2.75,low_verbal,8yyEgSuX,29
cone,bone,1972,0,ortho,5,high_verbal,AvRdAeDp,45
cone,bone,1310,1,ortho,2.25,low_verbal,AZihdj82,8
cone,bone,1302.4,1,ortho,4.75,high_verbal,BfCux7Qy,26
cone,bone,1678.5,1,ortho,4.67,high_verbal,bj3SfFHq,23
cone,bone,1772.4,1,ortho,4.166667,high_verbal,c8Txd3Z5,53
cone,bone,1910,1,ortho,1,low_verbal,CPt18YMj,13
cone,bone,2780.8,1,ortho,2.916666667,low_verbal,Ds5BnIYz,37
cone,bone,1344.1,1,ortho,4.75,high_verbal,DuDDHkI9,42
cone,bone,1280.1,1,ortho,4.333333,high_verbal,duTSHxzu,49
cone,bone,1198.2,1,ortho,3.25,low_verbal,e3BB2RMg,25
cone,bone,1840,0,ortho,3.17,low_verbal,Ezm1v61p,32
cone,bone,1418,1,ortho,3,low_verbal,fbKqS6qy,13
cone,bone,1754.3,1,ortho,1.42,low_verbal,fX6rWWkd,14
cone,bone,1212.1,1,ortho,2.58,low_verbal,GJMX4RUC,32
cone,bone,1934,1,ortho,3,low_verbal,gmTxt8dp,10
cone,bone,1462.4,1,ortho,4.67,high_verbal,gY67hxD2,50
cone,bone,2010.8,1,ortho,2.42,low_verbal,HPiIXyO1,23
cone,bone,3570.1,0,ortho,2.833333333,low_verbal,hRiDYGB2,46
cone,bone,1376.8,1,ortho,4.58,high_verbal,hsk1bUWA,17
cone,bone,2637.4,1,ortho,4.75,high_verbal,IbadRTNw,36
cone,bone,1345,1,ortho,4.92,high_verbal,IGrNgFbi,5
cone,bone,1193.1,1,ortho,4.583333333,high_verbal,IMlP20yi,51
cone,bone,1126.5,1,ortho,1.92,low_verbal,JeMnPabT,27
cone,bone,1631,1,ortho,5,high_verbal,Ki4GHif7,34
cone,bone,977.6999998,1,ortho,4.5,high_verbal,KPfJRNRo,43
cone,bone,2327.9,1,ortho,2.58,low_verbal,lAeE5wTL,42
cone,bone,1770.6,1,ortho,4.67,high_verbal,lcQfoynH,36
cone,bone,1314.8,1,ortho,4.666667,high_verbal,LpHjkqKd,34
cone,bone,1714.5,1,ortho,1.08,low_verbal,LyXqRZhM,50
cone,bone,1584,1,ortho,5,high_verbal,m6nAacjH,53
cone,bone,1806.8,1,ortho,4.75,high_verbal,mHkNNA58,8
cone,bone,2285,1,ortho,2.666666667,low_verbal,mqvAJ91n,40
cone,bone,1290.9,1,ortho,1.75,low_verbal,mZqk099M,35
cone,bone,1909,1,ortho,4.666667,high_verbal,NCar5SZo,1
cone,bone,2598.6,1,ortho,4.75,high_verbal,NRFUWLZO,39
cone,bone,1230.3,1,ortho,3.083333333,low_verbal,NS1YHcvi,8
cone,bone,1914.2,1,ortho,1.92,low_verbal,Ny0Ml3uz,8
cone,bone,1722.5,1,ortho,2.5,low_verbal,OE580Gi8,39
cone,bone,1449.7,1,ortho,4.67,high_verbal,OHHIBcMJ,38
cone,bone,1192,1,ortho,2.916666667,low_verbal,OwZfp5qv,34
cone,bone,2440,1,ortho,2.916666667,low_verbal,ozMU0TCL,27
cone,bone,1552.1,1,ortho,4.916666667,high_verbal,Po8DLpvd,8
cone,bone,3364.5,1,ortho,4.333333,high_verbal,Ps3HVmAH,13
cone,bone,2149.5,0,ortho,1.5,low_verbal,pylKRwzb,46
cone,bone,2091.9,1,ortho,5,high_verbal,qFEgGDhX,31
cone,bone,2217.2,1,ortho,3,low_verbal,qkCSFiGm,10
cone,bone,1408.5,1,ortho,4.166667,high_verbal,qPOXJpNv,14
cone,bone,1843.6,1,ortho,4.416667,high_verbal,Qy5J1Mxs,33
cone,bone,2815,1,ortho,2.58,low_verbal,rdIExOr9,18
cone,bone,1057.6,1,ortho,4.166667,high_verbal,RHqN8QGm,52
cone,bone,1538.5,1,ortho,4.67,high_verbal,RlmJUu78,3
cone,bone,2112.4,1,ortho,4.25,high_verbal,sZLRQDIR,45
cone,bone,1811.5,1,ortho,2.33,low_verbal,TFWelN7f,41
cone,bone,1154.7,1,ortho,4.25,high_verbal,ts7nbQkN,36
cone,bone,1354.2,1,ortho,4.583333333,high_verbal,U8Rxi9rz,24
cone,bone,1163.8,1,ortho,1.67,low_verbal,UhCBWnbb,9
cone,bone,1118.6,1,ortho,2.17,low_verbal,vhsbIoXa,4
cone,bone,1604,0,ortho,2.83,low_verbal,VxHNyXXR,8
cone,bone,1414,0,ortho,2.67,low_verbal,wDmKNbjb,51
cone,bone,824.1,1,ortho,4.666666667,high_verbal,WewWn58j,37
cone,bone,1605.6,1,ortho,3,low_verbal,xa4C6HC1,19
cone,bone,1367,0,ortho,1.75,low_verbal,Xa9ISMwC,5
cone,bone,1800.7,1,ortho,2.58,low_verbal,xMXJBD7Y,15
cone,bone,1946,1,ortho,4.833333333,high_verbal,xnNpmgQR,12
cone,bone,1369.1,1,ortho,4.75,high_verbal,XTcCmXvP,28
cone,bone,1285.3,1,ortho,4.75,high_verbal,XWkUpOyp,34
cone,bone,3662.5,1,ortho,4.83,high_verbal,XxuTNyUr,49
cone,bone,1997,1,ortho,4.666666667,high_verbal,y1Ud0IvQ,51
cone,bone,1431.6,1,ortho,4.583333333,high_verbal,ycrZF9Ui,46
cone,bone,1092.9,1,ortho,4.833333333,high_verbal,yduNAfJN,26
cone,bone,1339.9,1,ortho,4.92,high_verbal,yI870PhA,14
cone,bone,2284,1,ortho,4.92,high_verbal,zfMwhrdi,44
cone,bone,1522.6,0,ortho,2.17,low_verbal,zzU1ectZ,31
crab,spoon,1626.1,1,NR,2.25,low_verbal,05Wo9IGy,11
crab,spoon,1638.2,1,NR,1.75,low_verbal,0CxunTLR,7
crab,spoon,873.5,1,NR,2.42,low_verbal,0EwA9ugv,27
crab,spoon,1318.8,1,NR,2.58,low_verbal,0X9nY8Ym,32
crab,spoon,3116,1,NR,2.833333333,low_verbal,1hM1LUCj,23
crab,spoon,1727.5,1,NR,4.166667,high_verbal,26Z3U4Qu,53
crab,spoon,3146,1,NR,3.083333333,low_verbal,2dXRa5Zq,38
crab,spoon,1883.1,1,NR,4.67,high_verbal,2Ie4vXKm,15
crab,spoon,1550.4,1,NR,1.83,low_verbal,3DHBLnqj,18
crab,spoon,1781.8,1,NR,4.92,high_verbal,3HwZ3aSO,53
crab,spoon,2355.3,1,NR,4.83,high_verbal,4ELANfYv,33
crab,spoon,1756.5,1,NR,4.833333333,high_verbal,4FubSY7J,8
crab,spoon,1501.6,1,NR,3.083333333,low_verbal,4KFmznfv,10
crab,spoon,1496.9,1,NR,1.33,low_verbal,5WF1GwNy,5
crab,spoon,1137.7,1,NR,4.5,high_verbal,79p4hVcb,42
crab,spoon,1423.3,1,NR,4.666666667,high_verbal,7eDZS0g9,27
crab,spoon,1190.1,1,NR,2.92,low_verbal,7rrmnKSW,17
crab,spoon,1390,1,NR,2.17,low_verbal,7rvMjiCW,48
crab,spoon,1106.5,1,NR,2.833333333,low_verbal,8Mnv01S8,23
crab,spoon,1945.6,1,NR,2.75,low_verbal,8yyEgSuX,10
crab,spoon,2326,1,NR,5,high_verbal,AvRdAeDp,17
crab,spoon,1002.7,1,NR,2.25,low_verbal,AZihdj82,13
crab,spoon,1315.700001,1,NR,4.75,high_verbal,BfCux7Qy,30
crab,spoon,1990.6,1,NR,4.67,high_verbal,bj3SfFHq,44
crab,spoon,1176.3,1,NR,4.166667,high_verbal,c8Txd3Z5,40
crab,spoon,1360,1,NR,1,low_verbal,CPt18YMj,30
crab,spoon,1236.9,1,NR,2.916666667,low_verbal,Ds5BnIYz,44
crab,spoon,2057.9,1,NR,4.75,high_verbal,DuDDHkI9,15
crab,spoon,1299.4,1,NR,4.333333,high_verbal,duTSHxzu,38
crab,spoon,1715.3,1,NR,3.25,low_verbal,e3BB2RMg,7
crab,spoon,1152,1,NR,3.17,low_verbal,Ezm1v61p,47
crab,spoon,2145,1,NR,3,low_verbal,fbKqS6qy,35
crab,spoon,1489.8,1,NR,1.42,low_verbal,fX6rWWkd,53
crab,spoon,989.4,1,NR,2.58,low_verbal,GJMX4RUC,7
crab,spoon,1416,1,NR,3,low_verbal,gmTxt8dp,14
crab,spoon,2070.6,1,NR,4.67,high_verbal,gY67hxD2,22
crab,spoon,2555.1,1,NR,2.42,low_verbal,HPiIXyO1,34
crab,spoon,2096.3,1,NR,2.833333333,low_verbal,hRiDYGB2,29
crab,spoon,1500.9,1,NR,4.58,high_verbal,hsk1bUWA,10
crab,spoon,1859.2,1,NR,4.75,high_verbal,IbadRTNw,43
crab,spoon,1759.7,1,NR,4.92,high_verbal,IGrNgFbi,6
crab,spoon,1875.6,1,NR,4.583333333,high_verbal,IMlP20yi,11
crab,spoon,977.2,1,NR,1.92,low_verbal,JeMnPabT,28
crab,spoon,1314,1,NR,5,high_verbal,Ki4GHif7,35
crab,spoon,1256.8,1,NR,4.5,high_verbal,KPfJRNRo,47
crab,spoon,2176.1,1,NR,2.58,low_verbal,lAeE5wTL,33
crab,spoon,1512.2,1,NR,4.67,high_verbal,lcQfoynH,51
crab,spoon,1265.2,1,NR,4.666667,high_verbal,LpHjkqKd,15
crab,spoon,1622.8,1,NR,1.08,low_verbal,LyXqRZhM,25
crab,spoon,1365,1,NR,5,high_verbal,m6nAacjH,1
crab,spoon,4042.8,1,NR,4.75,high_verbal,mHkNNA58,7
crab,spoon,1288,1,NR,2.666666667,low_verbal,mqvAJ91n,23
crab,spoon,1505.9,1,NR,1.75,low_verbal,mZqk099M,34
crab,spoon,1738,1,NR,4.666667,high_verbal,NCar5SZo,26
crab,spoon,2477.5,1,NR,4.75,high_verbal,NRFUWLZO,18
crab,spoon,2502.8,1,NR,3.083333333,low_verbal,NS1YHcvi,3
crab,spoon,1273.3,1,NR,1.92,low_verbal,Ny0Ml3uz,40
crab,spoon,1530.8,1,NR,2.5,low_verbal,OE580Gi8,51
crab,spoon,1182.9,1,NR,4.67,high_verbal,OHHIBcMJ,41
crab,spoon,1802,1,NR,2.916666667,low_verbal,OwZfp5qv,38
crab,spoon,1460,1,NR,2.916666667,low_verbal,ozMU0TCL,34
crab,spoon,2314.3,1,NR,4.916666667,high_verbal,Po8DLpvd,13
crab,spoon,1046.4,1,NR,4.333333,high_verbal,Ps3HVmAH,53
crab,spoon,1181.6,1,NR,1.5,low_verbal,pylKRwzb,24
crab,spoon,1129.9,1,NR,5,high_verbal,qFEgGDhX,17
crab,spoon,2400.8,1,NR,3,low_verbal,qkCSFiGm,50
crab,spoon,1426.7,1,NR,4.166667,high_verbal,qPOXJpNv,10
crab,spoon,1238.6,1,NR,4.416667,high_verbal,Qy5J1Mxs,16
crab,spoon,4046,1,NR,2.58,low_verbal,rdIExOr9,6
crab,spoon,878.2,1,NR,4.166667,high_verbal,RHqN8QGm,22
crab,spoon,1665.6,1,NR,4.67,high_verbal,RlmJUu78,31
crab,spoon,1728.4,1,NR,4.25,high_verbal,sZLRQDIR,46
crab,spoon,1587.3,1,NR,4.25,high_verbal,ts7nbQkN,14
crab,spoon,1244.8,1,NR,4.583333333,high_verbal,U8Rxi9rz,42
crab,spoon,1559.1,1,NR,1.67,low_verbal,UhCBWnbb,21
crab,spoon,1116.2,1,NR,2.17,low_verbal,vhsbIoXa,31
crab,spoon,1481,1,NR,2.83,low_verbal,VxHNyXXR,13
crab,spoon,1645.3,1,NR,2.67,low_verbal,wDmKNbjb,48
crab,spoon,1574.7,1,NR,4.666666667,high_verbal,WewWn58j,40
crab,spoon,1832.2,1,NR,3,low_verbal,xa4C6HC1,7
crab,spoon,1436.7,1,NR,1.75,low_verbal,Xa9ISMwC,36
crab,spoon,2390.9,1,NR,2.58,low_verbal,xMXJBD7Y,5
crab,spoon,2260,1,NR,4.833333333,high_verbal,xnNpmgQR,19
crab,spoon,1136.9,1,NR,4.75,high_verbal,XTcCmXvP,40
crab,spoon,1612,1,NR,4.75,high_verbal,XWkUpOyp,5
crab,spoon,1605.6,1,NR,4.83,high_verbal,XxuTNyUr,33
crab,spoon,1107,1,NR,4.666666667,high_verbal,y1Ud0IvQ,43
crab,spoon,897.4,1,NR,4.583333333,high_verbal,ycrZF9Ui,10
crab,spoon,1334.6,1,NR,4.833333333,high_verbal,yduNAfJN,17
crab,spoon,1599.2,1,NR,4.92,high_verbal,yI870PhA,29
crab,spoon,2368.2,1,NR,4.92,high_verbal,zfMwhrdi,31
crab,spoon,1866.4,1,NR,2.17,low_verbal,zzU1ectZ,3
crane,bear,4202.8,1,NR,2.25,low_verbal,05Wo9IGy,29
crane,train,2627.9,1,non-ortho,2.25,low_verbal,05Wo9IGy,35
crane,train,1995.8,1,non-ortho,1.75,low_verbal,0CxunTLR,16
crane,bear,1700.1,1,NR,1.75,low_verbal,0CxunTLR,31
crane,bear,1992.1,0,NR,2.42,low_verbal,0EwA9ugv,6
crane,train,1286.1,0,non-ortho,2.42,low_verbal,0EwA9ugv,10
crane,bear,2492.3,1,NR,2.58,low_verbal,0X9nY8Ym,7
crane,train,1523.4,1,non-ortho,2.58,low_verbal,0X9nY8Ym,20
crane,train,3548,0,non-ortho,2.833333333,low_verbal,1hM1LUCj,30
crane,bear,1151,1,NR,2.833333333,low_verbal,1hM1LUCj,52
crane,train,2169.1,0,non-ortho,4.166667,high_verbal,26Z3U4Qu,21
crane,bear,2007.1,1,NR,4.166667,high_verbal,26Z3U4Qu,22
crane,bear,3461.7,1,NR,3.083333333,low_verbal,2dXRa5Zq,16
crane,train,2126.7,1,non-ortho,3.083333333,low_verbal,2dXRa5Zq,45
crane,bear,2997.4,1,NR,4.67,high_verbal,2Ie4vXKm,3
crane,train,2940.3,0,non-ortho,4.67,high_verbal,2Ie4vXKm,12
crane,bear,2982.7,0,NR,1.83,low_verbal,3DHBLnqj,15
crane,train,2144.8,1,non-ortho,1.83,low_verbal,3DHBLnqj,43
crane,train,1853.8,0,non-ortho,4.92,high_verbal,3HwZ3aSO,29
crane,bear,1407.5,1,NR,4.92,high_verbal,3HwZ3aSO,52
crane,bear,1885.5,1,NR,4.83,high_verbal,4ELANfYv,2
crane,train,2374.9,1,non-ortho,4.83,high_verbal,4ELANfYv,16
crane,bear,3712.7,1,NR,4.833333333,high_verbal,4FubSY7J,44
crane,train,3713.7,0,non-ortho,4.833333333,high_verbal,4FubSY7J,53
crane,bear,3853,1,NR,3.083333333,low_verbal,4KFmznfv,20
crane,train,4789.1,0,non-ortho,3.083333333,low_verbal,4KFmznfv,23
crane,bear,2401.2,1,NR,1.33,low_verbal,5WF1GwNy,20
crane,train,2535,0,non-ortho,1.33,low_verbal,5WF1GwNy,35
crane,bear,4758.2,1,NR,4.5,high_verbal,79p4hVcb,10
crane,train,2098.9,0,non-ortho,4.5,high_verbal,79p4hVcb,20
crane,train,1872.5,1,non-ortho,4.666666667,high_verbal,7eDZS0g9,7
crane,bear,1437.6,1,NR,4.666666667,high_verbal,7eDZS0g9,13
crane,train,3219.3,0,non-ortho,2.92,low_verbal,7rrmnKSW,19
crane,bear,3151.8,1,NR,2.92,low_verbal,7rrmnKSW,32
crane,bear,2378.7,1,NR,2.17,low_verbal,7rvMjiCW,6
crane,train,1430,1,non-ortho,2.17,low_verbal,7rvMjiCW,37
crane,train,1940.9,0,non-ortho,2.833333333,low_verbal,8Mnv01S8,6
crane,bear,1456.7,1,NR,2.833333333,low_verbal,8Mnv01S8,52
crane,bear,1577.4,0,NR,2.75,low_verbal,8yyEgSuX,4
crane,train,3184.3,1,non-ortho,2.75,low_verbal,8yyEgSuX,8
crane,train,1377.9,0,non-ortho,5,high_verbal,AvRdAeDp,7
crane,bear,1702.7,1,NR,5,high_verbal,AvRdAeDp,16
crane,train,3000.8,0,non-ortho,2.25,low_verbal,AZihdj82,9
crane,bear,949.6,1,NR,2.25,low_verbal,AZihdj82,19
crane,bear,3722.400002,1,NR,4.75,high_verbal,BfCux7Qy,53
crane,train,1847.9,1,non-ortho,4.67,high_verbal,bj3SfFHq,21
crane,bear,1616.8,1,NR,4.67,high_verbal,bj3SfFHq,37
crane,bear,3659.2,1,NR,4.166667,high_verbal,c8Txd3Z5,42
crane,train,2464.2,1,non-ortho,4.166667,high_verbal,c8Txd3Z5,46
crane,bear,1689,1,NR,1,low_verbal,CPt18YMj,42
crane,train,2083,0,non-ortho,1,low_verbal,CPt18YMj,43
crane,train,1307.6,1,non-ortho,2.916666667,low_verbal,Ds5BnIYz,9
crane,bear,1468.8,1,NR,2.916666667,low_verbal,Ds5BnIYz,11
crane,bear,3375,1,NR,4.75,high_verbal,DuDDHkI9,5
crane,train,2219.9,0,non-ortho,4.75,high_verbal,DuDDHkI9,25
crane,bear,2370.6,1,NR,4.333333,high_verbal,duTSHxzu,16
crane,train,1985.9,0,non-ortho,4.333333,high_verbal,duTSHxzu,18
crane,train,1846.3,1,non-ortho,3.25,low_verbal,e3BB2RMg,10
crane,bear,1795.7,1,NR,3.25,low_verbal,e3BB2RMg,46
crane,train,2811,1,non-ortho,3.17,low_verbal,Ezm1v61p,17
crane,bear,2145,1,NR,3.17,low_verbal,Ezm1v61p,25
crane,train,2020,1,non-ortho,3,low_verbal,fbKqS6qy,29
crane,bear,1535,1,NR,3,low_verbal,fbKqS6qy,49
crane,bear,2571.5,1,NR,1.42,low_verbal,fX6rWWkd,5
crane,train,1733.9,0,non-ortho,1.42,low_verbal,fX6rWWkd,6
crane,bear,1284,1,NR,2.58,low_verbal,GJMX4RUC,52
crane,train,1954,1,non-ortho,3,low_verbal,gmTxt8dp,15
crane,bear,4904,1,NR,3,low_verbal,gmTxt8dp,16
crane,train,2708.1,1,non-ortho,4.67,high_verbal,gY67hxD2,17
crane,bear,1807.5,1,NR,4.67,high_verbal,gY67hxD2,38
crane,bear,4488,1,NR,2.42,low_verbal,HPiIXyO1,9
crane,train,1836.1,0,non-ortho,2.42,low_verbal,HPiIXyO1,42
crane,bear,2476.5,1,NR,2.833333333,low_verbal,hRiDYGB2,25
crane,train,1761.3,1,non-ortho,2.833333333,low_verbal,hRiDYGB2,32
crane,train,1678.3,1,non-ortho,4.58,high_verbal,hsk1bUWA,9
crane,bear,1048.5,1,NR,4.58,high_verbal,hsk1bUWA,32
crane,bear,1679.5,1,NR,4.75,high_verbal,IbadRTNw,15
crane,train,2158,0,non-ortho,4.75,high_verbal,IbadRTNw,48
crane,train,2584.1,1,non-ortho,4.92,high_verbal,IGrNgFbi,2
crane,bear,1572.1,1,NR,4.92,high_verbal,IGrNgFbi,25
crane,bear,2188.8,1,NR,4.583333333,high_verbal,IMlP20yi,34
crane,train,3059.7,1,non-ortho,4.583333333,high_verbal,IMlP20yi,39
crane,bear,1950.6,1,NR,1.92,low_verbal,JeMnPabT,10
crane,train,1709.3,1,non-ortho,1.92,low_verbal,JeMnPabT,21
crane,bear,1711,1,NR,5,high_verbal,Ki4GHif7,1
crane,train,2379,1,non-ortho,5,high_verbal,Ki4GHif7,33
crane,bear,2319.8,1,NR,4.5,high_verbal,KPfJRNRo,7
crane,train,2164.8,1,non-ortho,4.5,high_verbal,KPfJRNRo,20
crane,train,2789.3,1,non-ortho,2.58,low_verbal,lAeE5wTL,2
crane,bear,1952.3,1,NR,2.58,low_verbal,lAeE5wTL,10
crane,train,2914.2,0,non-ortho,4.67,high_verbal,lcQfoynH,15
crane,bear,2236.6,1,NR,4.67,high_verbal,lcQfoynH,34
crane,train,1971.6,1,non-ortho,4.666667,high_verbal,LpHjkqKd,18
crane,bear,1411.3,1,NR,4.666667,high_verbal,LpHjkqKd,39
crane,train,2677.7,0,non-ortho,1.08,low_verbal,LyXqRZhM,43
crane,bear,2392.5,1,NR,1.08,low_verbal,LyXqRZhM,53
crane,train,2510,1,non-ortho,5,high_verbal,m6nAacjH,13
crane,bear,1968,1,NR,5,high_verbal,m6nAacjH,48
crane,train,2152.3,1,non-ortho,4.75,high_verbal,mHkNNA58,13
crane,bear,1979.2,1,NR,4.75,high_verbal,mHkNNA58,26
crane,bear,4106,1,NR,2.666666667,low_verbal,mqvAJ91n,4
crane,train,2179,1,non-ortho,2.666666667,low_verbal,mqvAJ91n,30
crane,bear,3225.6,1,NR,1.75,low_verbal,mZqk099M,19
crane,train,2586,1,non-ortho,1.75,low_verbal,mZqk099M,28
crane,bear,4796,1,NR,4.666667,high_verbal,NCar5SZo,43
crane,train,2332,1,non-ortho,4.666667,high_verbal,NCar5SZo,50
crane,train,1833.1,1,non-ortho,4.75,high_verbal,NRFUWLZO,38
crane,bear,1699.7,1,NR,4.75,high_verbal,NRFUWLZO,43
crane,train,1931.6,1,non-ortho,3.083333333,low_verbal,NS1YHcvi,24
crane,bear,1880.2,1,NR,3.083333333,low_verbal,NS1YHcvi,53
crane,train,1415.7,1,non-ortho,1.92,low_verbal,Ny0Ml3uz,38
crane,bear,2474.2,0,NR,1.92,low_verbal,Ny0Ml3uz,48
crane,bear,2595.3,1,NR,2.5,low_verbal,OE580Gi8,42
crane,train,2131,1,non-ortho,2.5,low_verbal,OE580Gi8,50
crane,bear,1382.7,1,NR,4.67,high_verbal,OHHIBcMJ,18
crane,train,4009.2,0,non-ortho,4.67,high_verbal,OHHIBcMJ,35
crane,train,3008,1,non-ortho,2.916666667,low_verbal,OwZfp5qv,46
crane,bear,1824,1,NR,2.916666667,low_verbal,OwZfp5qv,50
crane,train,2582,0,non-ortho,2.916666667,low_verbal,ozMU0TCL,14
crane,bear,1619,1,NR,2.916666667,low_verbal,ozMU0TCL,23
crane,bear,3953.3,1,NR,4.916666667,high_verbal,Po8DLpvd,10
crane,train,3424.3,1,non-ortho,4.916666667,high_verbal,Po8DLpvd,41
crane,train,2244.6,0,non-ortho,4.333333,high_verbal,Ps3HVmAH,7
crane,bear,1055.8,1,NR,4.333333,high_verbal,Ps3HVmAH,45
crane,bear,499.1,1,NR,1.5,low_verbal,pylKRwzb,22
crane,train,2194.7,1,non-ortho,1.5,low_verbal,pylKRwzb,26
crane,bear,2223.8,1,NR,5,high_verbal,qFEgGDhX,10
crane,train,2188.9,0,non-ortho,5,high_verbal,qFEgGDhX,20
crane,train,3102.6,1,non-ortho,3,low_verbal,qkCSFiGm,22
crane,bear,1735.8,1,NR,3,low_verbal,qkCSFiGm,31
crane,train,1779.8,1,non-ortho,4.166667,high_verbal,qPOXJpNv,37
crane,bear,1844.3,1,NR,4.166667,high_verbal,qPOXJpNv,40
crane,train,2444.2,0,non-ortho,4.416667,high_verbal,Qy5J1Mxs,10
crane,bear,3010.6,1,NR,4.416667,high_verbal,Qy5J1Mxs,17
crane,bear,2433,1,NR,2.58,low_verbal,rdIExOr9,14
crane,train,2592,0,non-ortho,2.58,low_verbal,rdIExOr9,27
crane,train,1302.7,1,non-ortho,4.166667,high_verbal,RHqN8QGm,36
crane,bear,914.6,1,NR,4.166667,high_verbal,RHqN8QGm,42
crane,train,1906.9,0,non-ortho,4.67,high_verbal,RlmJUu78,30
crane,bear,1626.2,1,NR,4.67,high_verbal,RlmJUu78,34
crane,train,2306.3,1,non-ortho,4.25,high_verbal,sZLRQDIR,18
crane,bear,1556.1,1,NR,4.25,high_verbal,sZLRQDIR,44
crane,train,2584.1,1,non-ortho,2.33,low_verbal,TFWelN7f,14
crane,bear,2207,1,NR,2.33,low_verbal,TFWelN7f,32
crane,train,2074,0,non-ortho,4.25,high_verbal,ts7nbQkN,39
crane,bear,1868.3,1,NR,4.25,high_verbal,ts7nbQkN,45
crane,train,1890,0,non-ortho,4.583333333,high_verbal,U8Rxi9rz,5
crane,bear,1545.7,1,NR,4.583333333,high_verbal,U8Rxi9rz,53
crane,bear,2067.7,1,NR,1.67,low_verbal,UhCBWnbb,34
crane,train,1982,0,non-ortho,1.67,low_verbal,UhCBWnbb,46
crane,bear,4514.6,1,NR,2.17,low_verbal,vhsbIoXa,39
crane,train,1659.9,1,non-ortho,2.17,low_verbal,vhsbIoXa,43
crane,train,2068,1,non-ortho,2.83,low_verbal,VxHNyXXR,25
crane,bear,2032,1,NR,2.83,low_verbal,VxHNyXXR,38
crane,train,780.3999996,1,non-ortho,2.67,low_verbal,wDmKNbjb,25
crane,bear,1823.9,0,NR,2.67,low_verbal,wDmKNbjb,52
crane,bear,1525.9,1,NR,4.666666667,high_verbal,WewWn58j,13
crane,train,1363.3,1,non-ortho,4.666666667,high_verbal,WewWn58j,19
crane,train,2908.7,0,non-ortho,3,low_verbal,xa4C6HC1,25
crane,bear,3629.4,1,NR,3,low_verbal,xa4C6HC1,29
crane,train,2106.4,0,non-ortho,1.75,low_verbal,Xa9ISMwC,16
crane,bear,1833.2,1,NR,1.75,low_verbal,Xa9ISMwC,35
crane,bear,2067.7,1,NR,2.58,low_verbal,xMXJBD7Y,35
crane,train,1600.4,1,non-ortho,2.58,low_verbal,xMXJBD7Y,47
crane,bear,3217,1,NR,4.833333333,high_verbal,xnNpmgQR,14
crane,train,1944,1,non-ortho,4.833333333,high_verbal,xnNpmgQR,31
crane,bear,1899.400001,0,NR,4.75,high_verbal,XTcCmXvP,2
crane,train,1429.599999,1,non-ortho,4.75,high_verbal,XTcCmXvP,41
crane,train,1851.6,1,non-ortho,4.75,high_verbal,XWkUpOyp,25
crane,train,3959.3,1,non-ortho,4.83,high_verbal,XxuTNyUr,28
crane,bear,2186.4,1,NR,4.83,high_verbal,XxuTNyUr,40
crane,train,1757,1,non-ortho,4.666666667,high_verbal,y1Ud0IvQ,1
crane,bear,1365,1,NR,4.666666667,high_verbal,y1Ud0IvQ,23
crane,train,1040.3,1,non-ortho,4.583333333,high_verbal,ycrZF9Ui,6
crane,bear,1515.3,1,NR,4.583333333,high_verbal,ycrZF9Ui,8
crane,bear,1732.7,1,NR,4.833333333,high_verbal,yduNAfJN,11
crane,train,1768.5,1,non-ortho,4.833333333,high_verbal,yduNAfJN,22
crane,train,2080.2,1,non-ortho,4.92,high_verbal,yI870PhA,20
crane,bear,1837.6,1,NR,4.92,high_verbal,yI870PhA,42
crane,train,3174.1,1,non-ortho,4.92,high_verbal,zfMwhrdi,22
crane,bear,3832.3,1,NR,4.92,high_verbal,zfMwhrdi,26
crane,bear,1934.7,1,NR,2.17,low_verbal,zzU1ectZ,21
crane,train,2247.1,1,non-ortho,2.17,low_verbal,zzU1ectZ,23
door,tree,1656.6,1,NR,2.25,low_verbal,05Wo9IGy,8
door,drawer,2385.5,1,non-ortho,2.25,low_verbal,05Wo9IGy,38
door,drawer,2336.6,0,non-ortho,1.75,low_verbal,0CxunTLR,10
door,tree,1651.7,1,NR,1.75,low_verbal,0CxunTLR,20
door,drawer,1731.6,1,non-ortho,2.42,low_verbal,0EwA9ugv,17
door,tree,1352.4,0,NR,2.42,low_verbal,0EwA9ugv,40
door,tree,1707.5,1,NR,2.58,low_verbal,0X9nY8Ym,26
door,drawer,2506.4,0,non-ortho,2.58,low_verbal,0X9nY8Ym,53
door,drawer,2526,0,non-ortho,2.833333333,low_verbal,1hM1LUCj,8
door,tree,2318,1,NR,2.833333333,low_verbal,1hM1LUCj,46
door,drawer,1605.3,1,non-ortho,4.166667,high_verbal,26Z3U4Qu,15
door,tree,1445.5,1,NR,4.166667,high_verbal,26Z3U4Qu,24
door,drawer,3275,0,non-ortho,3.083333333,low_verbal,2dXRa5Zq,14
door,tree,1753.9,1,NR,3.083333333,low_verbal,2dXRa5Zq,49
door,tree,1282.9,1,NR,4.67,high_verbal,2Ie4vXKm,43
door,drawer,2829,0,non-ortho,4.67,high_verbal,2Ie4vXKm,48
door,tree,1948.1,1,NR,1.83,low_verbal,3DHBLnqj,13
door,drawer,2398.7,0,non-ortho,1.83,low_verbal,3DHBLnqj,48
door,tree,1527.6,1,NR,4.92,high_verbal,3HwZ3aSO,22
door,drawer,2063.8,0,non-ortho,4.92,high_verbal,3HwZ3aSO,51
door,drawer,2396.3,1,non-ortho,4.83,high_verbal,4ELANfYv,25
door,tree,1554.1,1,NR,4.83,high_verbal,4ELANfYv,41
door,drawer,1980.9,1,non-ortho,4.833333333,high_verbal,4FubSY7J,15
door,tree,1461.5,1,NR,4.833333333,high_verbal,4FubSY7J,41
door,tree,2495,1,NR,3.083333333,low_verbal,4KFmznfv,18
door,drawer,3049.1,1,non-ortho,3.083333333,low_verbal,4KFmznfv,19
door,tree,2116.7,1,NR,1.33,low_verbal,5WF1GwNy,16
door,drawer,4128.1,0,non-ortho,1.33,low_verbal,5WF1GwNy,28
door,drawer,2429.9,1,non-ortho,4.5,high_verbal,79p4hVcb,23
door,tree,2833.3,1,NR,4.5,high_verbal,79p4hVcb,31
door,drawer,1320.8,1,non-ortho,4.666666667,high_verbal,7eDZS0g9,41
door,tree,929.9,1,NR,4.666666667,high_verbal,7eDZS0g9,48
door,tree,1282.1,1,NR,2.92,low_verbal,7rrmnKSW,12
door,drawer,1960.4,1,non-ortho,2.92,low_verbal,7rrmnKSW,41
door,drawer,2648.9,1,non-ortho,2.17,low_verbal,7rvMjiCW,15
door,tree,1803.8,1,NR,2.17,low_verbal,7rvMjiCW,42
door,tree,1667.4,1,NR,2.833333333,low_verbal,8Mnv01S8,10
door,drawer,1761.6,1,non-ortho,2.833333333,low_verbal,8Mnv01S8,21
door,tree,2445.8,1,NR,2.75,low_verbal,8yyEgSuX,23
door,drawer,2434.9,0,non-ortho,2.75,low_verbal,8yyEgSuX,34
door,tree,2436.9,1,NR,5,high_verbal,AvRdAeDp,8
door,drawer,2192.7,1,non-ortho,5,high_verbal,AvRdAeDp,37
door,drawer,2089.1,1,non-ortho,2.25,low_verbal,AZihdj82,25
door,tree,2525.5,1,NR,2.25,low_verbal,AZihdj82,44
door,tree,3616.6,1,NR,4.75,high_verbal,BfCux7Qy,15
door,drawer,3786.5,0,non-ortho,4.75,high_verbal,BfCux7Qy,45
door,tree,2453.7,1,NR,4.67,high_verbal,bj3SfFHq,11
door,drawer,1781.6,1,non-ortho,4.67,high_verbal,bj3SfFHq,38
door,tree,1935.2,1,NR,4.166667,high_verbal,c8Txd3Z5,1
door,drawer,1978.5,0,non-ortho,4.166667,high_verbal,c8Txd3Z5,30
door,tree,2007,1,NR,1,low_verbal,CPt18YMj,18
door,drawer,1295.2,1,non-ortho,2.916666667,low_verbal,Ds5BnIYz,8
door,tree,1117.6,1,NR,2.916666667,low_verbal,Ds5BnIYz,52
door,tree,2248.5,1,NR,4.75,high_verbal,DuDDHkI9,4
door,drawer,1926.5,1,non-ortho,4.75,high_verbal,DuDDHkI9,16
door,drawer,2120.5,0,non-ortho,4.333333,high_verbal,duTSHxzu,9
door,tree,1762.7,1,NR,4.333333,high_verbal,duTSHxzu,47
door,tree,1344,1,NR,3.25,low_verbal,e3BB2RMg,14
door,drawer,2697,0,non-ortho,3.25,low_verbal,e3BB2RMg,39
door,drawer,3047,1,non-ortho,3.17,low_verbal,Ezm1v61p,12
door,tree,1764,1,NR,3.17,low_verbal,Ezm1v61p,15
door,tree,1581,1,NR,3,low_verbal,fbKqS6qy,9
door,drawer,1613,0,non-ortho,3,low_verbal,fbKqS6qy,32
door,tree,1978.4,1,NR,1.42,low_verbal,fX6rWWkd,15
door,drawer,2843.1,0,non-ortho,1.42,low_verbal,fX6rWWkd,27
door,drawer,1744.5,1,non-ortho,2.58,low_verbal,GJMX4RUC,19
door,tree,1600.4,1,NR,2.58,low_verbal,GJMX4RUC,28
door,tree,1315,1,NR,3,low_verbal,gmTxt8dp,12
door,drawer,3552,0,non-ortho,3,low_verbal,gmTxt8dp,46
door,tree,2330.9,1,NR,4.67,high_verbal,gY67hxD2,30
door,drawer,1613.6,1,non-ortho,4.67,high_verbal,gY67hxD2,43
door,tree,2540,1,NR,2.42,low_verbal,HPiIXyO1,13
door,drawer,2263.7,0,non-ortho,2.42,low_verbal,HPiIXyO1,51
door,drawer,2863.7,1,non-ortho,2.833333333,low_verbal,hRiDYGB2,7
door,tree,1427.4,1,NR,2.833333333,low_verbal,hRiDYGB2,34
door,drawer,1310.3,0,non-ortho,4.58,high_verbal,hsk1bUWA,33
door,drawer,1881,0,non-ortho,4.75,high_verbal,IbadRTNw,14
door,tree,1703.1,1,NR,4.75,high_verbal,IbadRTNw,45
door,drawer,3308.2,1,non-ortho,4.92,high_verbal,IGrNgFbi,45
door,tree,1270.4,1,NR,4.92,high_verbal,IGrNgFbi,51
door,tree,1776.3,1,NR,4.583333333,high_verbal,IMlP20yi,27
door,drawer,1509.3,1,non-ortho,4.583333333,high_verbal,IMlP20yi,29
door,tree,1112.9,1,NR,1.92,low_verbal,JeMnPabT,32
door,drawer,1204.6,1,non-ortho,1.92,low_verbal,JeMnPabT,47
door,tree,1343,1,NR,5,high_verbal,Ki4GHif7,10
door,drawer,2365,0,non-ortho,5,high_verbal,Ki4GHif7,30
door,tree,2191.8,1,NR,4.5,high_verbal,KPfJRNRo,2
door,drawer,1627.9,1,non-ortho,4.5,high_verbal,KPfJRNRo,19
door,drawer,2602.4,1,non-ortho,2.58,low_verbal,lAeE5wTL,4
door,tree,1589.2,1,NR,2.58,low_verbal,lAeE5wTL,19
door,drawer,2391.4,0,non-ortho,4.67,high_verbal,lcQfoynH,42
door,tree,1468.1,1,NR,4.67,high_verbal,lcQfoynH,43
door,tree,1434.1,1,NR,4.666667,high_verbal,LpHjkqKd,7
door,drawer,1914.7,1,non-ortho,4.666667,high_verbal,LpHjkqKd,26
door,drawer,2630.9,1,non-ortho,1.08,low_verbal,LyXqRZhM,14
door,tree,1479.7,1,NR,1.08,low_verbal,LyXqRZhM,45
door,tree,2640,1,NR,5,high_verbal,m6nAacjH,10
door,drawer,2064,1,non-ortho,5,high_verbal,m6nAacjH,22
door,tree,2797.7,1,NR,4.75,high_verbal,mHkNNA58,34
door,drawer,1439.7,1,non-ortho,4.75,high_verbal,mHkNNA58,53
door,tree,1485,1,NR,2.666666667,low_verbal,mqvAJ91n,3
door,drawer,2055,1,non-ortho,2.666666667,low_verbal,mqvAJ91n,19
door,drawer,1698.8,1,non-ortho,1.75,low_verbal,mZqk099M,17
door,tree,1315.6,1,NR,1.75,low_verbal,mZqk099M,37
door,tree,2213,1,NR,4.666667,high_verbal,NCar5SZo,13
door,drawer,2642,1,non-ortho,4.666667,high_verbal,NCar5SZo,35
door,drawer,1730.9,1,non-ortho,4.75,high_verbal,NRFUWLZO,33
door,tree,1344.9,1,NR,4.75,high_verbal,NRFUWLZO,42
door,tree,2692.3,1,NR,3.083333333,low_verbal,NS1YHcvi,28
door,drawer,2313.4,0,non-ortho,3.083333333,low_verbal,NS1YHcvi,35
door,tree,1160.9,1,NR,1.92,low_verbal,Ny0Ml3uz,39
door,drawer,2190.6,1,non-ortho,2.5,low_verbal,OE580Gi8,12
door,tree,1648.3,1,NR,2.5,low_verbal,OE580Gi8,21
door,tree,2207.4,1,NR,4.67,high_verbal,OHHIBcMJ,19
door,drawer,3546.8,0,non-ortho,4.67,high_verbal,OHHIBcMJ,26
door,tree,1529,1,NR,2.916666667,low_verbal,OwZfp5qv,15
door,drawer,4160,1,non-ortho,2.916666667,low_verbal,OwZfp5qv,35
door,tree,1470,1,NR,2.916666667,low_verbal,ozMU0TCL,31
door,drawer,1721,0,non-ortho,2.916666667,low_verbal,ozMU0TCL,46
door,drawer,1850.3,1,non-ortho,4.916666667,high_verbal,Po8DLpvd,24
door,tree,1508.4,1,NR,4.916666667,high_verbal,Po8DLpvd,48
door,tree,1707.2,1,NR,4.333333,high_verbal,Ps3HVmAH,1
door,drawer,1243.1,0,non-ortho,4.333333,high_verbal,Ps3HVmAH,47
door,tree,454.9,1,NR,1.5,low_verbal,pylKRwzb,20
door,drawer,1559.7,1,non-ortho,5,high_verbal,qFEgGDhX,24
door,tree,1324.8,1,NR,5,high_verbal,qFEgGDhX,28
door,tree,3332.6,1,NR,3,low_verbal,qkCSFiGm,26
door,drawer,3879.6,0,non-ortho,3,low_verbal,qkCSFiGm,32
door,tree,1487.6,1,NR,4.166667,high_verbal,qPOXJpNv,16
door,drawer,1834.6,0,non-ortho,4.166667,high_verbal,qPOXJpNv,29
door,drawer,1928.1,1,non-ortho,4.416667,high_verbal,Qy5J1Mxs,5
door,tree,1244.5,1,NR,4.416667,high_verbal,Qy5J1Mxs,46
door,drawer,2278,0,non-ortho,2.58,low_verbal,rdIExOr9,16
door,tree,1297,1,NR,2.58,low_verbal,rdIExOr9,42
door,tree,952.4,1,NR,4.166667,high_verbal,RHqN8QGm,28
door,drawer,1351.1,0,non-ortho,4.166667,high_verbal,RHqN8QGm,30
door,tree,1437.6,1,NR,4.67,high_verbal,RlmJUu78,7
door,drawer,1864,1,non-ortho,4.67,high_verbal,RlmJUu78,19
door,tree,1577.4,1,NR,4.25,high_verbal,sZLRQDIR,9
door,drawer,2453.6,0,non-ortho,4.25,high_verbal,sZLRQDIR,32
door,drawer,3896.1,0,non-ortho,2.33,low_verbal,TFWelN7f,15
door,tree,2848,1,NR,2.33,low_verbal,TFWelN7f,21
door,drawer,2197,0,non-ortho,4.25,high_verbal,ts7nbQkN,32
door,tree,1137.7,1,NR,4.25,high_verbal,ts7nbQkN,47
door,drawer,1311.9,0,non-ortho,4.583333333,high_verbal,U8Rxi9rz,25
door,tree,1139.7,1,NR,4.583333333,high_verbal,U8Rxi9rz,39
door,tree,1645.4,1,NR,1.67,low_verbal,UhCBWnbb,12
door,drawer,3577.4,1,non-ortho,1.67,low_verbal,UhCBWnbb,38
door,drawer,1345,1,non-ortho,2.17,low_verbal,vhsbIoXa,3
door,tree,1367.9,1,NR,2.17,low_verbal,vhsbIoXa,22
door,tree,2654,1,NR,2.83,low_verbal,VxHNyXXR,6
door,drawer,2501,1,non-ortho,2.83,low_verbal,VxHNyXXR,29
door,drawer,820.1999998,1,non-ortho,2.67,low_verbal,wDmKNbjb,15
door,tree,2240.6,0,NR,2.67,low_verbal,wDmKNbjb,47
door,drawer,1680.1,1,non-ortho,4.666666667,high_verbal,WewWn58j,11
door,tree,1678.1,1,NR,4.666666667,high_verbal,WewWn58j,35
door,drawer,3434.2,1,non-ortho,3,low_verbal,xa4C6HC1,17
door,tree,1597.3,1,NR,3,low_verbal,xa4C6HC1,45
door,tree,1660.1,1,NR,1.75,low_verbal,Xa9ISMwC,18
door,drawer,1888.1,1,non-ortho,1.75,low_verbal,Xa9ISMwC,20
door,tree,1904.8,1,NR,2.58,low_verbal,xMXJBD7Y,19
door,drawer,1564.7,0,non-ortho,2.58,low_verbal,xMXJBD7Y,50
door,drawer,1925,1,non-ortho,4.833333333,high_verbal,xnNpmgQR,11
door,tree,1712,1,NR,4.833333333,high_verbal,xnNpmgQR,38
door,drawer,2291.7,0,non-ortho,4.75,high_verbal,XTcCmXvP,27
door,tree,1194,1,NR,4.75,high_verbal,XTcCmXvP,47
door,drawer,1619.6,1,non-ortho,4.75,high_verbal,XWkUpOyp,26
door,tree,1198,1,NR,4.75,high_verbal,XWkUpOyp,50
door,drawer,1970.2,0,non-ortho,4.83,high_verbal,XxuTNyUr,21
door,tree,2321.3,1,NR,4.83,high_verbal,XxuTNyUr,45
door,tree,2853,1,NR,4.666666667,high_verbal,y1Ud0IvQ,13
door,drawer,1697,0,non-ortho,4.666666667,high_verbal,y1Ud0IvQ,40
door,drawer,1285.4,1,non-ortho,4.583333333,high_verbal,ycrZF9Ui,17
door,tree,2552.6,1,NR,4.583333333,high_verbal,ycrZF9Ui,47
door,drawer,2153,1,non-ortho,4.833333333,high_verbal,yduNAfJN,19
door,tree,2565.7,1,NR,4.833333333,high_verbal,yduNAfJN,50
door,drawer,3878.4,1,non-ortho,4.92,high_verbal,yI870PhA,36
door,tree,1343.8,1,NR,4.92,high_verbal,yI870PhA,39
door,tree,2602.7,1,NR,4.92,high_verbal,zfMwhrdi,27
door,drawer,3219.2,1,non-ortho,4.92,high_verbal,zfMwhrdi,47
door,tree,2021.8,1,NR,2.17,low_verbal,zzU1ectZ,1
door,drawer,2690.1,0,non-ortho,2.17,low_verbal,zzU1ectZ,11
fly,tie,1947.1,1,non-ortho,2.25,low_verbal,05Wo9IGy,2
fly,tie,2000.3,1,non-ortho,1.75,low_verbal,0CxunTLR,3
fly,tie,817.3000001,0,non-ortho,2.42,low_verbal,0EwA9ugv,30
fly,tie,1089.9,1,non-ortho,2.58,low_verbal,0X9nY8Ym,50
fly,tie,1474,1,non-ortho,2.833333333,low_verbal,1hM1LUCj,49
fly,tie,1813.7,1,non-ortho,4.166667,high_verbal,26Z3U4Qu,13
fly,tie,4233.2,0,non-ortho,3.083333333,low_verbal,2dXRa5Zq,44
fly,tie,1178,1,non-ortho,4.67,high_verbal,2Ie4vXKm,52
fly,tie,2865.9,1,non-ortho,1.83,low_verbal,3DHBLnqj,16
fly,tie,1681,1,non-ortho,4.92,high_verbal,3HwZ3aSO,33
fly,tie,1578.5,1,non-ortho,4.83,high_verbal,4ELANfYv,31
fly,tie,1492.6,1,non-ortho,4.833333333,high_verbal,4FubSY7J,11
fly,tie,2466,1,non-ortho,3.083333333,low_verbal,4KFmznfv,16
fly,tie,1889.1,1,non-ortho,1.33,low_verbal,5WF1GwNy,22
fly,tie,2112.8,1,non-ortho,4.5,high_verbal,79p4hVcb,40
fly,tie,1351.9,1,non-ortho,4.666666667,high_verbal,7eDZS0g9,34
fly,tie,3020.7,1,non-ortho,2.92,low_verbal,7rrmnKSW,46
fly,tie,1937.1,1,non-ortho,2.17,low_verbal,7rvMjiCW,9
fly,tie,3558,1,non-ortho,2.833333333,low_verbal,8Mnv01S8,34
fly,tie,3502.9,0,non-ortho,2.75,low_verbal,8yyEgSuX,47
fly,tie,1227.5,0,non-ortho,5,high_verbal,AvRdAeDp,23
fly,tie,1158.6,1,non-ortho,2.25,low_verbal,AZihdj82,37
fly,tie,2715,1,non-ortho,4.75,high_verbal,BfCux7Qy,34
fly,tie,1453.6,1,non-ortho,4.67,high_verbal,bj3SfFHq,2
fly,tie,2236.3,1,non-ortho,4.166667,high_verbal,c8Txd3Z5,10
fly,tie,1361,1,non-ortho,1,low_verbal,CPt18YMj,39
fly,tie,1742.2,1,non-ortho,2.916666667,low_verbal,Ds5BnIYz,47
fly,tie,1228.7,1,non-ortho,4.75,high_verbal,DuDDHkI9,18
fly,tie,1188.5,1,non-ortho,4.333333,high_verbal,duTSHxzu,51
fly,tie,1338.3,1,non-ortho,3.25,low_verbal,e3BB2RMg,52
fly,tie,1719,1,non-ortho,3.17,low_verbal,Ezm1v61p,6
fly,tie,1127,0,non-ortho,3,low_verbal,fbKqS6qy,51
fly,tie,2108.5,1,non-ortho,1.42,low_verbal,fX6rWWkd,18
fly,tie,1254,1,non-ortho,2.58,low_verbal,GJMX4RUC,22
fly,tie,1868,1,non-ortho,3,low_verbal,gmTxt8dp,22
fly,tie,1191.6,1,non-ortho,4.67,high_verbal,gY67hxD2,25
fly,tie,2380.7,1,non-ortho,2.42,low_verbal,HPiIXyO1,19
fly,tie,1153.9,1,non-ortho,2.833333333,low_verbal,hRiDYGB2,15
fly,tie,1337.7,1,non-ortho,4.58,high_verbal,hsk1bUWA,26
fly,tie,2008,1,non-ortho,4.75,high_verbal,IbadRTNw,2
fly,tie,1655.3,1,non-ortho,4.92,high_verbal,IGrNgFbi,34
fly,tie,1121.9,1,non-ortho,4.583333333,high_verbal,IMlP20yi,47
fly,tie,1240.4,0,non-ortho,1.92,low_verbal,JeMnPabT,17
fly,tie,1270,1,non-ortho,5,high_verbal,Ki4GHif7,14
fly,tie,2547.1,1,non-ortho,4.5,high_verbal,KPfJRNRo,11
fly,tie,1886.7,1,non-ortho,2.58,low_verbal,lAeE5wTL,49
fly,tie,2186.2,1,non-ortho,4.67,high_verbal,lcQfoynH,26
fly,tie,1043.9,1,non-ortho,4.666667,high_verbal,LpHjkqKd,30
fly,tie,2294,0,non-ortho,1.08,low_verbal,LyXqRZhM,39
fly,tie,1653,1,non-ortho,5,high_verbal,m6nAacjH,28
fly,tie,1369.4,1,non-ortho,4.75,high_verbal,mHkNNA58,52
fly,tie,2521,1,non-ortho,2.666666667,low_verbal,mqvAJ91n,10
fly,tie,1310.6,1,non-ortho,1.75,low_verbal,mZqk099M,46
fly,tie,1391,1,non-ortho,4.666667,high_verbal,NCar5SZo,27
fly,tie,1324.2,1,non-ortho,4.75,high_verbal,NRFUWLZO,3
fly,tie,1150.9,1,non-ortho,3.083333333,low_verbal,NS1YHcvi,17
fly,tie,1577.3,1,non-ortho,1.92,low_verbal,Ny0Ml3uz,13
fly,tie,1579.7,1,non-ortho,2.5,low_verbal,OE580Gi8,3
fly,tie,2172.2,1,non-ortho,4.67,high_verbal,OHHIBcMJ,36
fly,tie,1746,1,non-ortho,2.916666667,low_verbal,OwZfp5qv,19
fly,tie,2004,1,non-ortho,2.916666667,low_verbal,ozMU0TCL,53
fly,tie,1207.4,1,non-ortho,4.916666667,high_verbal,Po8DLpvd,47
fly,tie,2406.7,1,non-ortho,4.333333,high_verbal,Ps3HVmAH,5
fly,tie,1438.9,0,non-ortho,1.5,low_verbal,pylKRwzb,53
fly,tie,1567.7,1,non-ortho,5,high_verbal,qFEgGDhX,21
fly,tie,1359.9,1,non-ortho,3,low_verbal,qkCSFiGm,2
fly,tie,3074.8,1,non-ortho,4.166667,high_verbal,qPOXJpNv,26
fly,tie,1158.4,1,non-ortho,4.416667,high_verbal,Qy5J1Mxs,26
fly,tie,1372,1,non-ortho,2.58,low_verbal,rdIExOr9,40
fly,tie,1176.6,1,non-ortho,4.166667,high_verbal,RHqN8QGm,13
fly,tie,1216.4,1,non-ortho,4.67,high_verbal,RlmJUu78,2
fly,tie,1541.6,1,non-ortho,4.25,high_verbal,sZLRQDIR,31
fly,tie,3339.4,1,non-ortho,2.33,low_verbal,TFWelN7f,17
fly,tie,1424.3,1,non-ortho,4.25,high_verbal,ts7nbQkN,46
fly,tie,1046.9,1,non-ortho,4.583333333,high_verbal,U8Rxi9rz,49
fly,tie,1418.7,1,non-ortho,1.67,low_verbal,UhCBWnbb,31
fly,tie,1084,1,non-ortho,2.17,low_verbal,vhsbIoXa,10
fly,tie,1605,1,non-ortho,2.83,low_verbal,VxHNyXXR,2
